internal_node_id,trial_index,trial_type,time_elapsed,participant_id,num_trials,trials_per_block,practice_condition,stimulus,key_press,rt,correct,response,expected,font_size,responses
0.0-0.0,0,text,799,003,731,225,,,32,797,,,,,
0.0-1.0-0.0,1,survey-multi-choice,4051,003,731,225,,,,2235,,,,,"{""Q0"":""4""}"
0.0-1.0-1.0,2,survey-multi-choice,7058,003,731,225,,,,2001,,,,,"{""Q0"":""5""}"
0.0-1.0-2.0,3,survey-multi-choice,9470,003,731,225,,,,1403,,,,,"{""Q0"":""4""}"
0.0-1.0-3.0,4,survey-multi-choice,12203,003,731,225,,,,1728,,,,,"{""Q0"":""4""}"
0.0-1.0-4.0,5,survey-multi-choice,14733,003,731,225,,,,1523,,,,,"{""Q0"":""4""}"
0.0-1.0-5.0,6,survey-multi-choice,17845,003,731,225,,,,2105,,,,,"{""Q0"":""4""}"
0.0-2.0,7,text,19949,003,731,225,,,32,1100,,,,,
0.0-3.0-0.0,8,text,22454,003,731,225,,,32,1501,,,,,
0.0-3.0-1.0,9,single-stim,24362,003,731,225,,../img/fixation-cross.png,-1,-1,,,,,
0.0-3.0-2.0-0.0,10,multi-stim-multi-response,25516,003,731,225,,7,[-1],[-1],false,false,true,22.717mm,
0.0-3.0-2.0-1.0,11,multi-stim-multi-response,26671,003,731,225,,4,[-1],[-1],false,false,true,29mm,
0.0-3.0-2.0-2.0,12,multi-stim-multi-response,27826,003,731,225,,6,[-1],[-1],false,false,true,17.4mm,
0.0-3.0-2.0-3.0,13,multi-stim-multi-response,28978,003,731,225,,7,[-1],[-1],false,false,true,12mm,
0.0-3.0-2.0-4.0,14,multi-stim-multi-response,30129,003,731,225,,8,[-1],[-1],false,false,true,22.717mm,
0.0-3.0-2.0-5.0,15,multi-stim-multi-response,31280,003,731,225,,3,[-1],[-1],true,false,false,12mm,
0.0-3.0-2.0-6.0,16,multi-stim-multi-response,32432,003,731,225,,4,[-1],[-1],false,false,true,12mm,
0.0-3.0-2.0-7.0,17,multi-stim-multi-response,33586,003,731,225,,4,[-1],[-1],false,false,true,24.17mm,
0.0-3.0-2.0-8.0,18,multi-stim-multi-response,34737,003,731,225,,2,[-1],[-1],false,false,true,17.4mm,
0.0-3.0-2.0-9.0,19,multi-stim-multi-response,35894,003,731,225,,6,[-1],[-1],false,false,true,12mm,
0.0-3.0-2.0-10.0,20,multi-stim-multi-response,37050,003,731,225,,5,[-1],[-1],false,false,true,24.17mm,
0.0-3.0-2.0-11.0,21,multi-stim-multi-response,38205,003,731,225,,3,[32],[7],false,true,false,22.717mm,
0.0-3.0-2.0-12.0,22,multi-stim-multi-response,39360,003,731,225,,7,[32],[344],true,true,true,17.4mm,
0.0-3.0-2.0-13.0,23,multi-stim-multi-response,40515,003,731,225,,7,[-1],[-1],false,false,true,24.17mm,
0.0-3.0-2.0-14.0,24,multi-stim-multi-response,41670,003,731,225,,4,[-1],[-1],false,false,true,24.17mm,
0.0-3.0-2.0-15.0,25,multi-stim-multi-response,42825,003,731,225,,5,[-1],[-1],false,false,true,22.717mm,
0.0-3.0-2.0-16.0,26,multi-stim-multi-response,43976,003,731,225,,6,[-1],[-1],false,false,true,22.717mm,
0.0-3.0-2.0-17.0,27,multi-stim-multi-response,45130,003,731,225,,7,[-1],[-1],false,false,true,22.717mm,
0.0-3.0-2.0-18.0,28,multi-stim-multi-response,46284,003,731,225,,7,[-1],[-1],false,false,true,29mm,
0.0-3.0-2.0-19.0,29,multi-stim-multi-response,47440,003,731,225,,4,[-1],[-1],false,false,true,22.717mm,
0.0-3.0-2.0-20.0,30,multi-stim-multi-response,48595,003,731,225,,5,[-1],[-1],false,false,true,22.717mm,
0.0-3.0-2.0-21.0,31,multi-stim-multi-response,49750,003,731,225,,3,[-1],[-1],true,false,false,22.717mm,
0.0-3.0-2.0-22.0,32,multi-stim-multi-response,50905,003,731,225,,7,[-1],[-1],false,false,true,24.17mm,
0.0-3.0-2.0-23.0,33,multi-stim-multi-response,52056,003,731,225,,9,[-1],[-1],false,false,true,24.17mm,
0.0-3.0-2.0-24.0,34,multi-stim-multi-response,53209,003,731,225,,7,[-1],[-1],false,false,true,12mm,
0.0-3.0-2.0-25.0,35,multi-stim-multi-response,54364,003,731,225,,5,[-1],[-1],false,false,true,29mm,
0.0-3.0-2.0-26.0,36,multi-stim-multi-response,55520,003,731,225,,2,[-1],[-1],false,false,true,24.17mm,
0.0-3.0-2.0-27.0,37,multi-stim-multi-response,56675,003,731,225,,1,[-1],[-1],false,false,true,22.717mm,
0.0-3.0-2.0-28.0,38,multi-stim-multi-response,57830,003,731,225,,8,[-1],[-1],false,false,true,12mm,
0.0-3.0-2.0-29.0,39,multi-stim-multi-response,58985,003,731,225,,3,[-1],[-1],true,false,false,29mm,
0.0-3.0-2.0-30.0,40,multi-stim-multi-response,60136,003,731,225,,6,[-1],[-1],false,false,true,24.17mm,
0.0-3.0-2.0-31.0,41,multi-stim-multi-response,61289,003,731,225,,3,[-1],[-1],true,false,false,17.4mm,
0.0-3.0-2.0-32.0,42,multi-stim-multi-response,62445,003,731,225,,4,[-1],[-1],false,false,true,17.4mm,
0.0-3.0-2.0-33.0,43,multi-stim-multi-response,63599,003,731,225,,1,[-1],[-1],false,false,true,17.4mm,
0.0-3.0-2.0-34.0,44,multi-stim-multi-response,64754,003,731,225,,5,[-1],[-1],false,false,true,22.717mm,
0.0-3.0-2.0-35.0,45,multi-stim-multi-response,65910,003,731,225,,1,[-1],[-1],false,false,true,22.717mm,
0.0-3.0-2.0-36.0,46,multi-stim-multi-response,67064,003,731,225,,2,[-1],[-1],false,false,true,22.717mm,
0.0-3.0-2.0-37.0,47,multi-stim-multi-response,68216,003,731,225,,3,[-1],[-1],true,false,false,22.717mm,
0.0-3.0-2.0-38.0,48,multi-stim-multi-response,69369,003,731,225,,5,[-1],[-1],false,false,true,22.717mm,
0.0-3.0-2.0-39.0,49,multi-stim-multi-response,70524,003,731,225,,6,[-1],[-1],false,false,true,12mm,
0.0-3.0-2.0-40.0,50,multi-stim-multi-response,71679,003,731,225,,9,[-1],[-1],false,false,true,22.717mm,
0.0-3.0-2.0-41.0,51,multi-stim-multi-response,72835,003,731,225,,6,[-1],[-1],false,false,true,29mm,
0.0-3.0-2.0-42.0,52,multi-stim-multi-response,73989,003,731,225,,6,[-1],[-1],false,false,true,22.717mm,
0.0-3.0-2.0-43.0,53,multi-stim-multi-response,75144,003,731,225,,3,[-1],[-1],true,false,false,22.717mm,
0.0-3.0-2.0-44.0,54,multi-stim-multi-response,76296,003,731,225,,7,[-1],[-1],false,false,true,12mm,
0.0-3.0-2.0-45.0,55,multi-stim-multi-response,77449,003,731,225,,5,[-1],[-1],false,false,true,22.717mm,
0.0-3.0-2.0-46.0,56,multi-stim-multi-response,78604,003,731,225,,5,[-1],[-1],false,false,true,24.17mm,
0.0-3.0-2.0-47.0,57,multi-stim-multi-response,79758,003,731,225,,9,[-1],[-1],false,false,true,12mm,
0.0-3.0-2.0-48.0,58,multi-stim-multi-response,80914,003,731,225,,7,[-1],[-1],false,false,true,17.4mm,
0.0-3.0-2.0-49.0,59,multi-stim-multi-response,82069,003,731,225,,4,[-1],[-1],false,false,true,17.4mm,
0.0-3.0-2.0-50.0,60,multi-stim-multi-response,83224,003,731,225,,8,[-1],[-1],false,false,true,22.717mm,
0.0-3.0-2.0-51.0,61,multi-stim-multi-response,84380,003,731,225,,4,[-1],[-1],false,false,true,22.717mm,
0.0-3.0-2.0-52.0,62,multi-stim-multi-response,85534,003,731,225,,4,[-1],[-1],false,false,true,17.4mm,
0.0-3.0-2.0-53.0,63,multi-stim-multi-response,86689,003,731,225,,2,[-1],[-1],false,false,true,29mm,
0.0-3.0-2.0-54.0,64,multi-stim-multi-response,87845,003,731,225,,4,[-1],[-1],false,false,true,12mm,
0.0-3.0-2.0-55.0,65,multi-stim-multi-response,89000,003,731,225,,9,[-1],[-1],false,false,true,29mm,
0.0-3.0-2.0-56.0,66,multi-stim-multi-response,90155,003,731,225,,7,[-1],[-1],false,false,true,24.17mm,
0.0-3.0-2.0-57.0,67,multi-stim-multi-response,91310,003,731,225,,2,[-1],[-1],false,false,true,17.4mm,
0.0-3.0-2.0-58.0,68,multi-stim-multi-response,92465,003,731,225,,8,[-1],[-1],false,false,true,17.4mm,
0.0-3.0-2.0-59.0,69,multi-stim-multi-response,93620,003,731,225,,5,[-1],[-1],false,false,true,22.717mm,
0.0-3.0-2.0-60.0,70,multi-stim-multi-response,94775,003,731,225,,7,[-1],[-1],false,false,true,24.17mm,
0.0-3.0-2.0-61.0,71,multi-stim-multi-response,95930,003,731,225,,1,[-1],[-1],false,false,true,24.17mm,
0.0-3.0-2.0-62.0,72,multi-stim-multi-response,97085,003,731,225,,1,[-1],[-1],false,false,true,17.4mm,
0.0-3.0-2.0-63.0,73,multi-stim-multi-response,98237,003,731,225,,1,[-1],[-1],false,false,true,29mm,
0.0-3.0-2.0-64.0,74,multi-stim-multi-response,99390,003,731,225,,3,[-1],[-1],true,false,false,22.717mm,
0.0-3.0-2.0-65.0,75,multi-stim-multi-response,100545,003,731,225,,4,[-1],[-1],false,false,true,12mm,
0.0-3.0-2.0-66.0,76,multi-stim-multi-response,101700,003,731,225,,7,[-1],[-1],false,false,true,17.4mm,
0.0-3.0-2.0-67.0,77,multi-stim-multi-response,102855,003,731,225,,2,[-1],[-1],false,false,true,17.4mm,
0.0-3.0-2.0-68.0,78,multi-stim-multi-response,104010,003,731,225,,2,[-1],[-1],false,false,true,12mm,
0.0-3.0-2.0-69.0,79,multi-stim-multi-response,105165,003,731,225,,3,[-1],[-1],true,false,false,29mm,
0.0-3.0-2.0-70.0,80,multi-stim-multi-response,106320,003,731,225,,9,[-1],[-1],false,false,true,29mm,
0.0-3.0-2.0-71.0,81,multi-stim-multi-response,107475,003,731,225,,8,[-1],[-1],false,false,true,24.17mm,
0.0-3.0-2.0-72.0,82,multi-stim-multi-response,108631,003,731,225,,4,[-1],[-1],false,false,true,12mm,
0.0-3.0-2.0-73.0,83,multi-stim-multi-response,109786,003,731,225,,5,[-1],[-1],false,false,true,17.4mm,
0.0-3.0-2.0-74.0,84,multi-stim-multi-response,110937,003,731,225,,9,[-1],[-1],false,false,true,17.4mm,
0.0-3.0-2.0-75.0,85,multi-stim-multi-response,112090,003,731,225,,5,[-1],[-1],false,false,true,12mm,
0.0-3.0-2.0-76.0,86,multi-stim-multi-response,113245,003,731,225,,7,[-1],[-1],false,false,true,12mm,
0.0-3.0-2.0-77.0,87,multi-stim-multi-response,114400,003,731,225,,9,[-1],[-1],false,false,true,22.717mm,
0.0-3.0-2.0-78.0,88,multi-stim-multi-response,115555,003,731,225,,3,[-1],[-1],true,false,false,12mm,
0.0-3.0-2.0-79.0,89,multi-stim-multi-response,116710,003,731,225,,9,[-1],[-1],false,false,true,17.4mm,
0.0-3.0-2.0-80.0,90,multi-stim-multi-response,117865,003,731,225,,2,[-1],[-1],false,false,true,24.17mm,
0.0-3.0-2.0-81.0,91,multi-stim-multi-response,119017,003,731,225,,2,[-1],[-1],false,false,true,29mm,
0.0-3.0-2.0-82.0,92,multi-stim-multi-response,120170,003,731,225,,4,[-1],[-1],false,false,true,17.4mm,
0.0-3.0-2.0-83.0,93,multi-stim-multi-response,121325,003,731,225,,7,[-1],[-1],false,false,true,12mm,
0.0-3.0-2.0-84.0,94,multi-stim-multi-response,122480,003,731,225,,3,[-1],[-1],true,false,false,12mm,
0.0-3.0-2.0-85.0,95,multi-stim-multi-response,123635,003,731,225,,1,[-1],[-1],false,false,true,24.17mm,
0.0-3.0-2.0-86.0,96,multi-stim-multi-response,124790,003,731,225,,9,[-1],[-1],false,false,true,22.717mm,
0.0-3.0-2.0-87.0,97,multi-stim-multi-response,125946,003,731,225,,7,[-1],[-1],false,false,true,22.717mm,
0.0-3.0-2.0-88.0,98,multi-stim-multi-response,127100,003,731,225,,3,[-1],[-1],true,false,false,24.17mm,
0.0-3.0-2.0-89.0,99,multi-stim-multi-response,128255,003,731,225,,8,[-1],[-1],false,false,true,29mm,
0.0-3.0-2.0-90.0,100,multi-stim-multi-response,129411,003,731,225,,5,[-1],[-1],false,false,true,29mm,
0.0-3.0-2.0-91.0,101,multi-stim-multi-response,130566,003,731,225,,8,[-1],[-1],false,false,true,24.17mm,
0.0-3.0-2.0-92.0,102,multi-stim-multi-response,131721,003,731,225,,8,[-1],[-1],false,false,true,24.17mm,
0.0-3.0-2.0-93.0,103,multi-stim-multi-response,132876,003,731,225,,7,[-1],[-1],false,false,true,17.4mm,
0.0-3.0-2.0-94.0,104,multi-stim-multi-response,134031,003,731,225,,1,[-1],[-1],false,false,true,12mm,
0.0-3.0-2.0-95.0,105,multi-stim-multi-response,135186,003,731,225,,1,[-1],[-1],false,false,true,12mm,
0.0-3.0-2.0-96.0,106,multi-stim-multi-response,136341,003,731,225,,4,[-1],[-1],false,false,true,29mm,
0.0-3.0-2.0-97.0,107,multi-stim-multi-response,137496,003,731,225,,4,[-1],[-1],false,false,true,12mm,
0.0-3.0-2.0-98.0,108,multi-stim-multi-response,138651,003,731,225,,7,[-1],[-1],false,false,true,29mm,
0.0-3.0-2.0-99.0,109,multi-stim-multi-response,139807,003,731,225,,4,[-1],[-1],false,false,true,22.717mm,
0.0-3.0-2.0-100.0,110,multi-stim-multi-response,140962,003,731,225,,8,[-1],[-1],false,false,true,24.17mm,
0.0-3.0-2.0-101.0,111,multi-stim-multi-response,142117,003,731,225,,8,[-1],[-1],false,false,true,12mm,
0.0-3.0-2.0-102.0,112,multi-stim-multi-response,143272,003,731,225,,8,[-1],[-1],false,false,true,12mm,
0.0-3.0-2.0-103.0,113,multi-stim-multi-response,144427,003,731,225,,7,[-1],[-1],false,false,true,12mm,
0.0-3.0-2.0-104.0,114,multi-stim-multi-response,145578,003,731,225,,3,[-1],[-1],true,false,false,22.717mm,
0.0-3.0-2.0-105.0,115,multi-stim-multi-response,146731,003,731,225,,6,[-1],[-1],false,false,true,24.17mm,
0.0-3.0-2.0-106.0,116,multi-stim-multi-response,147887,003,731,225,,9,[-1],[-1],false,false,true,24.17mm,
0.0-3.0-2.0-107.0,117,multi-stim-multi-response,149042,003,731,225,,8,[-1],[-1],false,false,true,22.717mm,
0.0-3.0-2.0-108.0,118,multi-stim-multi-response,150197,003,731,225,,4,[-1],[-1],false,false,true,12mm,
0.0-3.0-2.0-109.0,119,multi-stim-multi-response,151352,003,731,225,,8,[-1],[-1],false,false,true,17.4mm,
0.0-3.0-2.0-110.0,120,multi-stim-multi-response,152507,003,731,225,,8,[-1],[-1],false,false,true,12mm,
0.0-3.0-2.0-111.0,121,multi-stim-multi-response,153658,003,731,225,,4,[-1],[-1],false,false,true,22.717mm,
0.0-3.0-2.0-112.0,122,multi-stim-multi-response,154811,003,731,225,,6,[-1],[-1],false,false,true,17.4mm,
0.0-3.0-2.0-113.0,123,multi-stim-multi-response,155966,003,731,225,,5,[-1],[-1],false,false,true,22.717mm,
0.0-3.0-2.0-114.0,124,multi-stim-multi-response,157121,003,731,225,,1,[-1],[-1],false,false,true,29mm,
0.0-3.0-2.0-115.0,125,multi-stim-multi-response,158276,003,731,225,,9,[-1],[-1],false,false,true,12mm,
0.0-3.0-2.0-116.0,126,multi-stim-multi-response,159431,003,731,225,,8,[-1],[-1],false,false,true,22.717mm,
0.0-3.0-2.0-117.0,127,multi-stim-multi-response,160587,003,731,225,,1,[-1],[-1],false,false,true,22.717mm,
0.0-3.0-2.0-118.0,128,multi-stim-multi-response,161738,003,731,225,,1,[-1],[-1],false,false,true,22.717mm,
0.0-3.0-2.0-119.0,129,multi-stim-multi-response,162894,003,731,225,,4,[-1],[-1],false,false,true,22.717mm,
0.0-3.0-2.0-120.0,130,multi-stim-multi-response,164048,003,731,225,,6,[-1],[-1],false,false,true,12mm,
0.0-3.0-2.0-121.0,131,multi-stim-multi-response,165200,003,731,225,,3,[-1],[-1],true,false,false,24.17mm,
0.0-3.0-2.0-122.0,132,multi-stim-multi-response,166354,003,731,225,,9,[-1],[-1],false,false,true,29mm,
0.0-3.0-2.0-123.0,133,multi-stim-multi-response,167506,003,731,225,,5,[-1],[-1],false,false,true,17.4mm,
0.0-3.0-2.0-124.0,134,multi-stim-multi-response,168661,003,731,225,,4,[-1],[-1],false,false,true,29mm,
0.0-3.0-2.0-125.0,135,multi-stim-multi-response,169816,003,731,225,,8,[-1],[-1],false,false,true,24.17mm,
0.0-3.0-2.0-126.0,136,multi-stim-multi-response,170971,003,731,225,,3,[-1],[-1],true,false,false,17.4mm,
0.0-3.0-2.0-127.0,137,multi-stim-multi-response,172126,003,731,225,,5,[-1],[-1],false,false,true,29mm,
0.0-3.0-2.0-128.0,138,multi-stim-multi-response,173281,003,731,225,,1,[-1],[-1],false,false,true,12mm,
0.0-3.0-2.0-129.0,139,multi-stim-multi-response,174436,003,731,225,,3,[-1],[-1],true,false,false,24.17mm,
0.0-3.0-2.0-130.0,140,multi-stim-multi-response,175591,003,731,225,,1,[-1],[-1],false,false,true,17.4mm,
0.0-3.0-2.0-131.0,141,multi-stim-multi-response,176747,003,731,225,,9,[-1],[-1],false,false,true,17.4mm,
0.0-3.0-2.0-132.0,142,multi-stim-multi-response,177901,003,731,225,,4,[-1],[-1],false,false,true,17.4mm,
0.0-3.0-2.0-133.0,143,multi-stim-multi-response,179057,003,731,225,,6,[-1],[-1],false,false,true,22.717mm,
0.0-3.0-2.0-134.0,144,multi-stim-multi-response,180212,003,731,225,,5,[-1],[-1],false,false,true,29mm,
0.0-3.0-2.0-135.0,145,multi-stim-multi-response,181366,003,731,225,,6,[-1],[-1],false,false,true,12mm,
0.0-3.0-2.0-136.0,146,multi-stim-multi-response,182522,003,731,225,,2,[-1],[-1],false,false,true,17.4mm,
0.0-3.0-2.0-137.0,147,multi-stim-multi-response,183677,003,731,225,,9,[-1],[-1],false,false,true,29mm,
0.0-3.0-2.0-138.0,148,multi-stim-multi-response,184832,003,731,225,,2,[-1],[-1],false,false,true,12mm,
0.0-3.0-2.0-139.0,149,multi-stim-multi-response,185987,003,731,225,,9,[-1],[-1],false,false,true,29mm,
0.0-3.0-2.0-140.0,150,multi-stim-multi-response,187139,003,731,225,,4,[-1],[-1],false,false,true,24.17mm,
0.0-3.0-2.0-141.0,151,multi-stim-multi-response,188290,003,731,225,,9,[-1],[-1],false,false,true,12mm,
0.0-3.0-2.0-142.0,152,multi-stim-multi-response,189446,003,731,225,,7,[-1],[-1],false,false,true,29mm,
0.0-3.0-2.0-143.0,153,multi-stim-multi-response,190601,003,731,225,,6,[-1],[-1],false,false,true,17.4mm,
0.0-3.0-2.0-144.0,154,multi-stim-multi-response,191757,003,731,225,,9,[-1],[-1],false,false,true,17.4mm,
0.0-3.0-2.0-145.0,155,multi-stim-multi-response,192912,003,731,225,,1,[-1],[-1],false,false,true,17.4mm,
0.0-3.0-2.0-146.0,156,multi-stim-multi-response,194067,003,731,225,,7,[-1],[-1],false,false,true,22.717mm,
0.0-3.0-2.0-147.0,157,multi-stim-multi-response,195222,003,731,225,,4,[-1],[-1],false,false,true,12mm,
0.0-3.0-2.0-148.0,158,multi-stim-multi-response,196377,003,731,225,,7,[-1],[-1],false,false,true,22.717mm,
0.0-3.0-2.0-149.0,159,multi-stim-multi-response,197532,003,731,225,,9,[-1],[-1],false,false,true,24.17mm,
0.0-3.0-2.0-150.0,160,multi-stim-multi-response,198687,003,731,225,,7,[-1],[-1],false,false,true,24.17mm,
0.0-3.0-2.0-151.0,161,multi-stim-multi-response,199842,003,731,225,,3,[-1],[-1],true,false,false,24.17mm,
0.0-3.0-2.0-152.0,162,multi-stim-multi-response,200997,003,731,225,,5,[-1],[-1],false,false,true,17.4mm,
0.0-3.0-2.0-153.0,163,multi-stim-multi-response,202153,003,731,225,,1,[-1],[-1],false,false,true,22.717mm,
0.0-3.0-2.0-154.0,164,multi-stim-multi-response,203308,003,731,225,,9,[-1],[-1],false,false,true,22.717mm,
0.0-3.0-2.0-155.0,165,multi-stim-multi-response,204459,003,731,225,,6,[-1],[-1],false,false,true,12mm,
0.0-3.0-2.0-156.0,166,multi-stim-multi-response,205612,003,731,225,,2,[-1],[-1],false,false,true,24.17mm,
0.0-3.0-2.0-157.0,167,multi-stim-multi-response,206767,003,731,225,,3,[-1],[-1],true,false,false,24.17mm,
0.0-3.0-2.0-158.0,168,multi-stim-multi-response,207922,003,731,225,,2,[-1],[-1],false,false,true,17.4mm,
0.0-3.0-2.0-159.0,169,multi-stim-multi-response,209076,003,731,225,,2,[-1],[-1],false,false,true,29mm,
0.0-3.0-2.0-160.0,170,multi-stim-multi-response,210231,003,731,225,,7,[-1],[-1],false,false,true,24.17mm,
0.0-3.0-2.0-161.0,171,multi-stim-multi-response,211388,003,731,225,,6,[-1],[-1],false,false,true,22.717mm,
0.0-3.0-2.0-162.0,172,multi-stim-multi-response,212539,003,731,225,,8,[-1],[-1],false,false,true,24.17mm,
0.0-3.0-2.0-163.0,173,multi-stim-multi-response,213692,003,731,225,,4,[-1],[-1],false,false,true,24.17mm,
0.0-3.0-2.0-164.0,174,multi-stim-multi-response,214847,003,731,225,,1,[-1],[-1],false,false,true,17.4mm,
0.0-3.0-2.0-165.0,175,multi-stim-multi-response,216002,003,731,225,,3,[-1],[-1],true,false,false,24.17mm,
0.0-3.0-2.0-166.0,176,multi-stim-multi-response,217157,003,731,225,,9,[-1],[-1],false,false,true,29mm,
0.0-3.0-2.0-167.0,177,multi-stim-multi-response,218312,003,731,225,,9,[-1],[-1],false,false,true,12mm,
0.0-3.0-2.0-168.0,178,multi-stim-multi-response,219467,003,731,225,,4,[-1],[-1],false,false,true,24.17mm,
0.0-3.0-2.0-169.0,179,multi-stim-multi-response,220619,003,731,225,,8,[-1],[-1],false,false,true,17.4mm,
0.0-3.0-2.0-170.0,180,multi-stim-multi-response,221772,003,731,225,,4,[-1],[-1],false,false,true,17.4mm,
0.0-3.0-2.0-171.0,181,multi-stim-multi-response,222927,003,731,225,,7,[-1],[-1],false,false,true,29mm,
0.0-3.0-2.0-172.0,182,multi-stim-multi-response,224082,003,731,225,,2,[-1],[-1],false,false,true,22.717mm,
0.0-3.0-2.0-173.0,183,multi-stim-multi-response,225237,003,731,225,,6,[-1],[-1],false,false,true,29mm,
0.0-3.0-2.0-174.0,184,multi-stim-multi-response,226393,003,731,225,,2,[-1],[-1],false,false,true,17.4mm,
0.0-3.0-2.0-175.0,185,multi-stim-multi-response,227547,003,731,225,,8,[-1],[-1],false,false,true,24.17mm,
0.0-3.0-2.0-176.0,186,multi-stim-multi-response,228698,003,731,225,,5,[-1],[-1],false,false,true,22.717mm,
0.0-3.0-2.0-177.0,187,multi-stim-multi-response,229851,003,731,225,,2,[-1],[-1],false,false,true,17.4mm,
0.0-3.0-2.0-178.0,188,multi-stim-multi-response,231007,003,731,225,,8,[-1],[-1],false,false,true,12mm,
0.0-3.0-2.0-179.0,189,multi-stim-multi-response,232160,003,731,225,,7,[32],[150],true,true,true,22.717mm,
0.0-3.0-2.0-180.0,190,multi-stim-multi-response,233316,003,731,225,,9,[32],[59],true,true,true,29mm,
0.0-3.0-2.0-181.0,191,multi-stim-multi-response,234472,003,731,225,,6,[32],[92],true,true,true,17.4mm,
0.0-3.0-2.0-182.0,192,multi-stim-multi-response,235625,003,731,225,,2,[32],[290],true,true,true,24.17mm,
0.0-3.0-2.0-183.0,193,multi-stim-multi-response,236778,003,731,225,,4,[32],[502],true,true,true,12mm,
0.0-3.0-2.0-184.0,194,multi-stim-multi-response,237931,003,731,225,,7,[32],[264],true,true,true,29mm,
0.0-3.0-2.0-185.0,195,multi-stim-multi-response,239087,003,731,225,,9,[32],[838],true,true,true,29mm,
0.0-3.0-2.0-186.0,196,multi-stim-multi-response,240242,003,731,225,,9,[32],[91],true,true,true,22.717mm,
0.0-3.0-2.0-187.0,197,multi-stim-multi-response,241397,003,731,225,,1,[-1],[-1],false,false,true,29mm,
0.0-3.0-2.0-188.0,198,multi-stim-multi-response,242552,003,731,225,,5,[-1],[-1],false,false,true,12mm,
0.0-3.0-2.0-189.0,199,multi-stim-multi-response,243707,003,731,225,,1,[-1],[-1],false,false,true,17.4mm,
0.0-3.0-2.0-190.0,200,multi-stim-multi-response,244858,003,731,225,,3,[-1],[-1],true,false,false,12mm,
0.0-3.0-2.0-191.0,201,multi-stim-multi-response,246011,003,731,225,,2,[-1],[-1],false,false,true,17.4mm,
0.0-3.0-2.0-192.0,202,multi-stim-multi-response,247162,003,731,225,,5,[-1],[-1],false,false,true,22.717mm,
0.0-3.0-2.0-193.0,203,multi-stim-multi-response,248316,003,731,225,,3,[-1],[-1],true,false,false,29mm,
0.0-3.0-2.0-194.0,204,multi-stim-multi-response,249470,003,731,225,,5,[-1],[-1],false,false,true,22.717mm,
0.0-3.0-2.0-195.0,205,multi-stim-multi-response,250626,003,731,225,,4,[-1],[-1],false,false,true,17.4mm,
0.0-3.0-2.0-196.0,206,multi-stim-multi-response,251781,003,731,225,,9,[-1],[-1],false,false,true,17.4mm,
0.0-3.0-2.0-197.0,207,multi-stim-multi-response,252936,003,731,225,,1,[-1],[-1],false,false,true,17.4mm,
0.0-3.0-2.0-198.0,208,multi-stim-multi-response,254091,003,731,225,,4,[-1],[-1],false,false,true,29mm,
0.0-3.0-2.0-199.0,209,multi-stim-multi-response,255246,003,731,225,,4,[-1],[-1],false,false,true,17.4mm,
0.0-3.0-2.0-200.0,210,multi-stim-multi-response,256400,003,731,225,,5,[-1],[-1],false,false,true,29mm,
0.0-3.0-2.0-201.0,211,multi-stim-multi-response,257551,003,731,225,,7,[-1],[-1],false,false,true,17.4mm,
0.0-3.0-2.0-202.0,212,multi-stim-multi-response,258702,003,731,225,,9,[-1],[-1],false,false,true,24.17mm,
0.0-3.0-2.0-203.0,213,multi-stim-multi-response,259855,003,731,225,,9,[-1],[-1],false,false,true,12mm,
0.0-3.0-2.0-204.0,214,multi-stim-multi-response,261010,003,731,225,,9,[-1],[-1],false,false,true,29mm,
0.0-3.0-2.0-205.0,215,multi-stim-multi-response,262165,003,731,225,,7,[-1],[-1],false,false,true,29mm,
0.0-3.0-2.0-206.0,216,multi-stim-multi-response,263320,003,731,225,,8,[-1],[-1],false,false,true,17.4mm,
0.0-3.0-2.0-207.0,217,multi-stim-multi-response,264475,003,731,225,,1,[-1],[-1],false,false,true,12mm,
0.0-3.0-2.0-208.0,218,multi-stim-multi-response,265630,003,731,225,,6,[-1],[-1],false,false,true,12mm,
0.0-3.0-2.0-209.0,219,multi-stim-multi-response,266785,003,731,225,,1,[-1],[-1],false,false,true,24.17mm,
0.0-3.0-2.0-210.0,220,multi-stim-multi-response,267941,003,731,225,,3,[-1],[-1],true,false,false,17.4mm,
0.0-3.0-2.0-211.0,221,multi-stim-multi-response,269096,003,731,225,,1,[-1],[-1],false,false,true,17.4mm,
0.0-3.0-2.0-212.0,222,multi-stim-multi-response,270251,003,731,225,,4,[32],[688],true,true,true,29mm,
0.0-3.0-2.0-213.0,223,multi-stim-multi-response,271406,003,731,225,,2,[32],[126],true,true,true,22.717mm,
0.0-3.0-2.0-214.0,224,multi-stim-multi-response,272561,003,731,225,,4,[-1],[-1],false,false,true,12mm,
0.0-3.0-2.0-215.0,225,multi-stim-multi-response,273716,003,731,225,,1,[-1],[-1],false,false,true,29mm,
0.0-3.0-2.0-216.0,226,multi-stim-multi-response,274871,003,731,225,,1,[-1],[-1],false,false,true,17.4mm,
0.0-3.0-2.0-217.0,227,multi-stim-multi-response,276026,003,731,225,,9,[-1],[-1],false,false,true,29mm,
0.0-3.0-2.0-218.0,228,multi-stim-multi-response,277182,003,731,225,,4,[-1],[-1],false,false,true,29mm,
0.0-3.0-2.0-219.0,229,multi-stim-multi-response,278333,003,731,225,,9,[-1],[-1],false,false,true,24.17mm,
0.0-3.0-2.0-220.0,230,multi-stim-multi-response,279484,003,731,225,,4,[-1],[-1],false,false,true,24.17mm,
0.0-3.0-2.0-221.0,231,multi-stim-multi-response,280641,003,731,225,,9,[-1],[-1],false,false,true,12mm,
0.0-3.0-2.0-222.0,232,multi-stim-multi-response,281796,003,731,225,,2,[-1],[-1],false,false,true,24.17mm,
0.0-3.0-2.0-223.0,233,multi-stim-multi-response,282951,003,731,225,,4,[-1],[-1],false,false,true,29mm,
0.0-3.0-2.0-224.0,234,multi-stim-multi-response,284106,003,731,225,,9,[-1],[-1],false,false,true,22.717mm,
0.0-3.0-3.0-0.0,235,survey-multi-choice,287625,003,731,225,,,,3516,,,,,"{""Q0"":""4""}"
0.0-3.0-3.0-1.0,236,survey-multi-choice,289932,003,731,225,,,,1302,,,,,"{""Q0"":""4""}"
0.0-4.0-0.0,237,text,292522,003,731,225,,,32,1583,,,,,
0.0-4.0-1.0,238,single-stim,294427,003,731,225,,../img/fixation-cross.png,-1,-1,,,,,
0.0-4.0-2.0-0.0,239,multi-stim-multi-response,295581,003,731,225,,6,[32],[697],true,true,true,29mm,
0.0-4.0-2.0-1.0,240,multi-stim-multi-response,296737,003,731,225,,9,[32],[137],true,true,true,17.4mm,
0.0-4.0-2.0-2.0,241,multi-stim-multi-response,297889,003,731,225,,5,[32],[117],true,true,true,24.17mm,
0.0-4.0-2.0-3.0,242,multi-stim-multi-response,299041,003,731,225,,1,[32],[126],true,true,true,12mm,
0.0-4.0-2.0-4.0,243,multi-stim-multi-response,300196,003,731,225,,2,[32],[133],true,true,true,29mm,
0.0-4.0-2.0-5.0,244,multi-stim-multi-response,301351,003,731,225,,8,[-1],[-1],false,false,true,17.4mm,
0.0-4.0-2.0-6.0,245,multi-stim-multi-response,303036,003,731,225,,9,[-1],[-1],false,false,true,29mm,
0.0-4.0-2.0-7.0,246,multi-stim-multi-response,305032,003,731,225,,4,[-1],[-1],false,false,true,24.17mm,
0.0-4.0-2.0-8.0,247,multi-stim-multi-response,307034,003,731,225,,4,[-1],[-1],false,false,true,24.17mm,
0.0-4.0-2.0-9.0,248,multi-stim-multi-response,309033,003,731,225,,5,[-1],[-1],false,false,true,29mm,
0.0-4.0-2.0-10.0,249,multi-stim-multi-response,311033,003,731,225,,4,[-1],[-1],false,false,true,17.4mm,
0.0-4.0-2.0-11.0,250,multi-stim-multi-response,313032,003,731,225,,9,[-1],[-1],false,false,true,29mm,
0.0-4.0-2.0-12.0,251,multi-stim-multi-response,315032,003,731,225,,5,[-1],[-1],false,false,true,29mm,
0.0-4.0-2.0-13.0,252,multi-stim-multi-response,317030,003,731,225,,2,[-1],[-1],false,false,true,17.4mm,
0.0-4.0-2.0-14.0,253,multi-stim-multi-response,319033,003,731,225,,8,[-1],[-1],false,false,true,24.17mm,
0.0-4.0-2.0-15.0,254,multi-stim-multi-response,321033,003,731,225,,9,[-1],[-1],false,false,true,24.17mm,
0.0-4.0-2.0-16.0,255,multi-stim-multi-response,323031,003,731,225,,8,[-1],[-1],false,false,true,17.4mm,
0.0-4.0-2.0-17.0,256,multi-stim-multi-response,324182,003,731,225,,5,[-1],[-1],false,false,true,17.4mm,
0.0-4.0-2.0-18.0,257,multi-stim-multi-response,325335,003,731,225,,6,[32],[914],true,true,true,29mm,
0.0-4.0-2.0-19.0,258,multi-stim-multi-response,326490,003,731,225,,9,[32],[87],true,true,true,12mm,
0.0-4.0-2.0-20.0,259,multi-stim-multi-response,327646,003,731,225,,6,[32],[1086],true,true,true,29mm,
0.0-4.0-2.0-21.0,260,multi-stim-multi-response,328801,003,731,225,,8,[32],[721],true,true,true,24.17mm,
0.0-4.0-2.0-22.0,261,multi-stim-multi-response,329956,003,731,225,,1,[32],[573],true,true,true,12mm,
0.0-4.0-2.0-23.0,262,multi-stim-multi-response,331107,003,731,225,,9,[32],[317],true,true,true,22.717mm,
0.0-4.0-2.0-24.0,263,multi-stim-multi-response,332260,003,731,225,,7,[32],[746],true,true,true,24.17mm,
0.0-4.0-2.0-25.0,264,multi-stim-multi-response,333415,003,731,225,,3,[32],[406],false,true,false,22.717mm,
0.0-4.0-2.0-26.0,265,multi-stim-multi-response,334571,003,731,225,,8,[32],[78],true,true,true,17.4mm,
0.0-4.0-2.0-27.0,266,multi-stim-multi-response,335726,003,731,225,,8,[-1],[-1],false,false,true,24.17mm,
0.0-4.0-2.0-28.0,267,multi-stim-multi-response,336881,003,731,225,,4,[32],[706],true,true,true,12mm,
0.0-4.0-2.0-29.0,268,multi-stim-multi-response,338036,003,731,225,,3,[32],[138],false,true,false,24.17mm,
0.0-4.0-2.0-30.0,269,multi-stim-multi-response,339191,003,731,225,,1,[-1],[-1],false,false,true,29mm,
0.0-4.0-2.0-31.0,270,multi-stim-multi-response,340346,003,731,225,,7,[-1],[-1],false,false,true,12mm,
0.0-4.0-2.0-32.0,271,multi-stim-multi-response,341501,003,731,225,,3,[-1],[-1],true,false,false,29mm,
0.0-4.0-2.0-33.0,272,multi-stim-multi-response,342654,003,731,225,,9,[32],[146],true,true,true,22.717mm,
0.0-4.0-2.0-34.0,273,multi-stim-multi-response,343805,003,731,225,,5,[32],[291],true,true,true,17.4mm,
0.0-4.0-2.0-35.0,274,multi-stim-multi-response,344957,003,731,225,,9,[32],[199],true,true,true,24.17mm,
0.0-4.0-2.0-36.0,275,multi-stim-multi-response,346108,003,731,225,,6,[-1],[-1],false,false,true,17.4mm,
0.0-4.0-2.0-37.0,276,multi-stim-multi-response,347265,003,731,225,,3,[-1],[-1],true,false,false,24.17mm,
0.0-4.0-2.0-38.0,277,multi-stim-multi-response,348420,003,731,225,,9,[-1],[-1],false,false,true,12mm,
0.0-4.0-2.0-39.0,278,multi-stim-multi-response,349575,003,731,225,,6,[-1],[-1],false,false,true,17.4mm,
0.0-4.0-2.0-40.0,279,multi-stim-multi-response,350730,003,731,225,,9,[-1],[-1],false,false,true,24.17mm,
0.0-4.0-2.0-41.0,280,multi-stim-multi-response,351885,003,731,225,,2,[-1],[-1],false,false,true,12mm,
0.0-4.0-2.0-42.0,281,multi-stim-multi-response,353038,003,731,225,,2,[-1],[-1],false,false,true,22.717mm,
0.0-4.0-2.0-43.0,282,multi-stim-multi-response,354190,003,731,225,,1,[-1],[-1],false,false,true,12mm,
0.0-4.0-2.0-44.0,283,multi-stim-multi-response,355345,003,731,225,,7,[-1],[-1],false,false,true,22.717mm,
0.0-4.0-2.0-45.0,284,multi-stim-multi-response,356500,003,731,225,,2,[-1],[-1],false,false,true,29mm,
0.0-4.0-2.0-46.0,285,multi-stim-multi-response,357655,003,731,225,,9,[-1],[-1],false,false,true,24.17mm,
0.0-4.0-2.0-47.0,286,multi-stim-multi-response,358810,003,731,225,,1,[32],[811],true,true,true,17.4mm,
0.0-4.0-2.0-48.0,287,multi-stim-multi-response,359962,003,731,225,,2,[32],[112],true,true,true,17.4mm,
0.0-4.0-2.0-49.0,288,multi-stim-multi-response,361114,003,731,225,,7,[32],[174],true,true,true,12mm,
0.0-4.0-2.0-50.0,289,multi-stim-multi-response,362269,003,731,225,,1,[32],[59],true,true,true,17.4mm,
0.0-4.0-2.0-51.0,290,multi-stim-multi-response,363425,003,731,225,,9,[32],[191],true,true,true,24.17mm,
0.0-4.0-2.0-52.0,291,multi-stim-multi-response,364579,003,731,225,,8,[32],[4],true,true,true,17.4mm,
0.0-4.0-2.0-53.0,292,multi-stim-multi-response,365733,003,731,225,,2,[32],[67],true,true,true,12mm,
0.0-4.0-2.0-54.0,293,multi-stim-multi-response,366884,003,731,225,,4,[32],[791],true,true,true,22.717mm,
0.0-4.0-2.0-55.0,294,multi-stim-multi-response,368039,003,731,225,,6,[32],[742],true,true,true,12mm,
0.0-4.0-2.0-56.0,295,multi-stim-multi-response,369194,003,731,225,,6,[32],[597],true,true,true,29mm,
0.0-4.0-2.0-57.0,296,multi-stim-multi-response,370349,003,731,225,,3,[32],[394],false,true,false,12mm,
0.0-4.0-2.0-58.0,297,multi-stim-multi-response,371503,003,731,225,,8,[32],[222],true,true,true,24.17mm,
0.0-4.0-2.0-59.0,298,multi-stim-multi-response,372654,003,731,225,,7,[32],[820],true,true,true,17.4mm,
0.0-4.0-2.0-60.0,299,multi-stim-multi-response,373809,003,731,225,,4,[32],[571],true,true,true,17.4mm,
0.0-4.0-2.0-61.0,300,multi-stim-multi-response,374964,003,731,225,,9,[32],[323],true,true,true,24.17mm,
0.0-4.0-2.0-62.0,301,multi-stim-multi-response,376119,003,731,225,,1,[32],[240],true,true,true,17.4mm,
0.0-4.0-2.0-63.0,302,multi-stim-multi-response,377274,003,731,225,,4,[32],[672],true,true,true,12mm,
0.0-4.0-2.0-64.0,303,multi-stim-multi-response,378429,003,731,225,,4,[32],[341],true,true,true,12mm,
0.0-4.0-2.0-65.0,304,multi-stim-multi-response,379584,003,731,225,,9,[32],[246],true,true,true,29mm,
0.0-4.0-2.0-66.0,305,multi-stim-multi-response,380739,003,731,225,,3,[32],[712],false,true,false,24.17mm,
0.0-4.0-2.0-67.0,306,multi-stim-multi-response,381895,003,731,225,,5,[32],[409],true,true,true,17.4mm,
0.0-4.0-2.0-68.0,307,multi-stim-multi-response,383049,003,731,225,,8,[32],[662],true,true,true,22.717mm,
0.0-4.0-2.0-69.0,308,multi-stim-multi-response,384205,003,731,225,,2,[32],[382],true,true,true,12mm,
0.0-4.0-2.0-70.0,309,multi-stim-multi-response,385360,003,731,225,,2,[32],[63],true,true,true,29mm,
0.0-4.0-2.0-71.0,310,multi-stim-multi-response,386515,003,731,225,,8,[32],[366],true,true,true,24.17mm,
0.0-4.0-2.0-72.0,311,multi-stim-multi-response,387666,003,731,225,,6,[-1],[-1],false,false,true,24.17mm,
0.0-4.0-2.0-73.0,312,multi-stim-multi-response,388818,003,731,225,,1,[32],[697],true,true,true,29mm,
0.0-4.0-2.0-74.0,313,multi-stim-multi-response,389974,003,731,225,,6,[-1],[-1],false,false,true,22.717mm,
0.0-4.0-2.0-75.0,314,multi-stim-multi-response,391129,003,731,225,,6,[-1],[-1],false,false,true,29mm,
0.0-4.0-2.0-76.0,315,multi-stim-multi-response,392285,003,731,225,,5,[-1],[-1],false,false,true,22.717mm,
0.0-4.0-2.0-77.0,316,multi-stim-multi-response,393439,003,731,225,,2,[-1],[-1],false,false,true,22.717mm,
0.0-4.0-2.0-78.0,317,multi-stim-multi-response,394595,003,731,225,,6,[-1],[-1],false,false,true,22.717mm,
0.0-4.0-2.0-79.0,318,multi-stim-multi-response,395750,003,731,225,,3,[-1],[-1],true,false,false,22.717mm,
0.0-4.0-2.0-80.0,319,multi-stim-multi-response,396905,003,731,225,,9,[-1],[-1],false,false,true,24.17mm,
0.0-4.0-2.0-81.0,320,multi-stim-multi-response,398060,003,731,225,,2,[-1],[-1],false,false,true,22.717mm,
0.0-4.0-2.0-82.0,321,multi-stim-multi-response,399215,003,731,225,,8,[-1],[-1],false,false,true,24.17mm,
0.0-4.0-2.0-83.0,322,multi-stim-multi-response,400370,003,731,225,,5,[-1],[-1],false,false,true,12mm,
0.0-4.0-2.0-84.0,323,multi-stim-multi-response,401525,003,731,225,,5,[-1],[-1],false,false,true,17.4mm,
0.0-4.0-2.0-85.0,324,multi-stim-multi-response,402680,003,731,225,,3,[32],[999],false,true,false,17.4mm,
0.0-4.0-2.0-86.0,325,multi-stim-multi-response,403836,003,731,225,,6,[32],[603],true,true,true,12mm,
0.0-4.0-2.0-87.0,326,multi-stim-multi-response,404990,003,731,225,,5,[32],[61],true,true,true,22.717mm,
0.0-4.0-2.0-88.0,327,multi-stim-multi-response,406146,003,731,225,,9,[32],[71],true,true,true,22.717mm,
0.0-4.0-2.0-89.0,328,multi-stim-multi-response,407299,003,731,225,,8,[32],[800],true,true,true,12mm,
0.0-4.0-2.0-90.0,329,multi-stim-multi-response,408455,003,731,225,,5,[32],[697],true,true,true,12mm,
0.0-4.0-2.0-91.0,330,multi-stim-multi-response,409609,003,731,225,,2,[32],[536],true,true,true,29mm,
0.0-4.0-2.0-92.0,331,multi-stim-multi-response,410760,003,731,225,,3,[32],[410],false,true,false,29mm,
0.0-4.0-2.0-93.0,332,multi-stim-multi-response,411915,003,731,225,,8,[32],[157],true,true,true,24.17mm,
0.0-4.0-2.0-94.0,333,multi-stim-multi-response,413070,003,731,225,,9,[32],[957],true,true,true,17.4mm,
0.0-4.0-2.0-95.0,334,multi-stim-multi-response,414226,003,731,225,,5,[-1],[-1],false,false,true,17.4mm,
0.0-4.0-2.0-96.0,335,multi-stim-multi-response,415381,003,731,225,,5,[-1],[-1],false,false,true,12mm,
0.0-4.0-2.0-97.0,336,multi-stim-multi-response,416536,003,731,225,,3,[-1],[-1],true,false,false,24.17mm,
0.0-4.0-2.0-98.0,337,multi-stim-multi-response,417691,003,731,225,,9,[-1],[-1],false,false,true,29mm,
0.0-4.0-2.0-99.0,338,multi-stim-multi-response,418846,003,731,225,,9,[32],[152],true,true,true,22.717mm,
0.0-4.0-2.0-100.0,339,multi-stim-multi-response,419997,003,731,225,,7,[32],[91],true,true,true,17.4mm,
0.0-4.0-2.0-101.0,340,multi-stim-multi-response,421150,003,731,225,,4,[32],[149],true,true,true,17.4mm,
0.0-4.0-2.0-102.0,341,multi-stim-multi-response,422305,003,731,225,,8,[32],[50],true,true,true,29mm,
0.0-4.0-2.0-103.0,342,multi-stim-multi-response,423461,003,731,225,,5,[-1],[-1],false,false,true,17.4mm,
0.0-4.0-2.0-104.0,343,multi-stim-multi-response,424616,003,731,225,,4,[-1],[-1],false,false,true,17.4mm,
0.0-4.0-2.0-105.0,344,multi-stim-multi-response,425771,003,731,225,,8,[-1],[-1],false,false,true,22.717mm,
0.0-4.0-2.0-106.0,345,multi-stim-multi-response,426926,003,731,225,,3,[-1],[-1],true,false,false,12mm,
0.0-4.0-2.0-107.0,346,multi-stim-multi-response,428081,003,731,225,,2,[-1],[-1],false,false,true,22.717mm,
0.0-4.0-2.0-108.0,347,multi-stim-multi-response,429236,003,731,225,,8,[-1],[-1],false,false,true,12mm,
0.0-4.0-2.0-109.0,348,multi-stim-multi-response,430391,003,731,225,,8,[-1],[-1],false,false,true,22.717mm,
0.0-4.0-2.0-110.0,349,multi-stim-multi-response,431542,003,731,225,,8,[-1],[-1],false,false,true,17.4mm,
0.0-4.0-2.0-111.0,350,multi-stim-multi-response,432694,003,731,225,,3,[-1],[-1],true,false,false,29mm,
0.0-4.0-2.0-112.0,351,multi-stim-multi-response,433845,003,731,225,,4,[-1],[-1],false,false,true,17.4mm,
0.0-4.0-2.0-113.0,352,multi-stim-multi-response,434996,003,731,225,,4,[-1],[-1],false,false,true,24.17mm,
0.0-4.0-2.0-114.0,353,multi-stim-multi-response,436148,003,731,225,,5,[-1],[-1],false,false,true,29mm,
0.0-4.0-2.0-115.0,354,multi-stim-multi-response,437304,003,731,225,,4,[-1],[-1],false,false,true,24.17mm,
0.0-4.0-2.0-116.0,355,multi-stim-multi-response,438459,003,731,225,,1,[-1],[-1],false,false,true,17.4mm,
0.0-4.0-2.0-117.0,356,multi-stim-multi-response,439611,003,731,225,,4,[-1],[-1],false,false,true,29mm,
0.0-4.0-2.0-118.0,357,multi-stim-multi-response,440764,003,731,225,,4,[-1],[-1],false,false,true,17.4mm,
0.0-4.0-2.0-119.0,358,multi-stim-multi-response,441919,003,731,225,,8,[-1],[-1],false,false,true,22.717mm,
0.0-4.0-2.0-120.0,359,multi-stim-multi-response,443074,003,731,225,,4,[-1],[-1],false,false,true,22.717mm,
0.0-4.0-2.0-121.0,360,multi-stim-multi-response,444229,003,731,225,,2,[-1],[-1],false,false,true,12mm,
0.0-4.0-2.0-122.0,361,multi-stim-multi-response,445384,003,731,225,,9,[-1],[-1],false,false,true,24.17mm,
0.0-4.0-2.0-123.0,362,multi-stim-multi-response,446539,003,731,225,,4,[-1],[-1],false,false,true,17.4mm,
0.0-4.0-2.0-124.0,363,multi-stim-multi-response,447691,003,731,225,,1,[-1],[-1],false,false,true,29mm,
0.0-4.0-2.0-125.0,364,multi-stim-multi-response,448843,003,731,225,,9,[-1],[-1],false,false,true,24.17mm,
0.0-4.0-2.0-126.0,365,multi-stim-multi-response,449999,003,731,225,,5,[-1],[-1],false,false,true,17.4mm,
0.0-4.0-2.0-127.0,366,multi-stim-multi-response,451154,003,731,225,,1,[-1],[-1],false,false,true,17.4mm,
0.0-4.0-2.0-128.0,367,multi-stim-multi-response,452309,003,731,225,,8,[-1],[-1],false,false,true,17.4mm,
0.0-4.0-2.0-129.0,368,multi-stim-multi-response,453464,003,731,225,,2,[-1],[-1],false,false,true,22.717mm,
0.0-4.0-2.0-130.0,369,multi-stim-multi-response,454620,003,731,225,,3,[-1],[-1],true,false,false,22.717mm,
0.0-4.0-2.0-131.0,370,multi-stim-multi-response,455774,003,731,225,,7,[32],[786],true,true,true,12mm,
0.0-4.0-2.0-132.0,371,multi-stim-multi-response,456929,003,731,225,,7,[32],[94],true,true,true,29mm,
0.0-4.0-2.0-133.0,372,multi-stim-multi-response,458083,003,731,225,,9,[32],[67],true,true,true,24.17mm,
0.0-4.0-2.0-134.0,373,multi-stim-multi-response,460018,003,731,225,,9,[-1],[-1],false,false,true,17.4mm,
0.0-4.0-2.0-135.0,374,multi-stim-multi-response,462020,003,731,225,,9,[-1],[-1],false,false,true,22.717mm,
0.0-4.0-2.0-136.0,375,multi-stim-multi-response,464017,003,731,225,,4,[-1],[-1],false,false,true,24.17mm,
0.0-4.0-2.0-137.0,376,multi-stim-multi-response,466019,003,731,225,,4,[-1],[-1],false,false,true,12mm,
0.0-4.0-2.0-138.0,377,multi-stim-multi-response,468018,003,731,225,,9,[-1],[-1],false,false,true,22.717mm,
0.0-4.0-2.0-139.0,378,multi-stim-multi-response,470018,003,731,225,,5,[-1],[-1],false,false,true,29mm,
0.0-4.0-2.0-140.0,379,multi-stim-multi-response,472017,003,731,225,,1,[-1],[-1],false,false,true,17.4mm,
0.0-4.0-2.0-141.0,380,multi-stim-multi-response,474018,003,731,225,,7,[-1],[-1],false,false,true,17.4mm,
0.0-4.0-2.0-142.0,381,multi-stim-multi-response,476020,003,731,225,,3,[-1],[-1],true,false,false,22.717mm,
0.0-4.0-2.0-143.0,382,multi-stim-multi-response,478017,003,731,225,,7,[-1],[-1],false,false,true,12mm,
0.0-4.0-2.0-144.0,383,multi-stim-multi-response,480018,003,731,225,,7,[-1],[-1],false,false,true,12mm,
0.0-4.0-2.0-145.0,384,multi-stim-multi-response,482020,003,731,225,,4,[-1],[-1],false,false,true,24.17mm,
0.0-4.0-2.0-146.0,385,multi-stim-multi-response,483172,003,731,225,,5,[-1],[-1],false,false,true,29mm,
0.0-4.0-2.0-147.0,386,multi-stim-multi-response,484326,003,731,225,,6,[-1],[-1],false,false,true,29mm,
0.0-4.0-2.0-148.0,387,multi-stim-multi-response,485481,003,731,225,,8,[32],[777],true,true,true,22.717mm,
0.0-4.0-2.0-149.0,388,multi-stim-multi-response,486636,003,731,225,,8,[32],[1],true,true,true,17.4mm,
0.0-4.0-2.0-150.0,389,multi-stim-multi-response,487792,003,731,225,,1,[-1],[-1],false,false,true,17.4mm,
0.0-4.0-2.0-151.0,390,multi-stim-multi-response,488947,003,731,225,,9,[-1],[-1],false,false,true,22.717mm,
0.0-4.0-2.0-152.0,391,multi-stim-multi-response,490102,003,731,225,,1,[-1],[-1],false,false,true,29mm,
0.0-4.0-2.0-153.0,392,multi-stim-multi-response,491257,003,731,225,,7,[-1],[-1],false,false,true,24.17mm,
0.0-4.0-2.0-154.0,393,multi-stim-multi-response,492412,003,731,225,,4,[-1],[-1],false,false,true,29mm,
0.0-4.0-2.0-155.0,394,multi-stim-multi-response,493565,003,731,225,,6,[-1],[-1],false,false,true,12mm,
0.0-4.0-2.0-156.0,395,multi-stim-multi-response,494716,003,731,225,,2,[-1],[-1],false,false,true,17.4mm,
0.0-4.0-2.0-157.0,396,multi-stim-multi-response,495871,003,731,225,,7,[-1],[-1],false,false,true,22.717mm,
0.0-4.0-2.0-158.0,397,multi-stim-multi-response,497027,003,731,225,,1,[-1],[-1],false,false,true,24.17mm,
0.0-4.0-2.0-159.0,398,multi-stim-multi-response,498182,003,731,225,,4,[-1],[-1],false,false,true,22.717mm,
0.0-4.0-2.0-160.0,399,multi-stim-multi-response,499337,003,731,225,,1,[-1],[-1],false,false,true,24.17mm,
0.0-4.0-2.0-161.0,400,multi-stim-multi-response,500492,003,731,225,,3,[-1],[-1],true,false,false,12mm,
0.0-4.0-2.0-162.0,401,multi-stim-multi-response,501647,003,731,225,,7,[-1],[-1],false,false,true,22.717mm,
0.0-4.0-2.0-163.0,402,multi-stim-multi-response,502802,003,731,225,,2,[-1],[-1],false,false,true,22.717mm,
0.0-4.0-2.0-164.0,403,multi-stim-multi-response,503957,003,731,225,,3,[-1],[-1],true,false,false,12mm,
0.0-4.0-2.0-165.0,404,multi-stim-multi-response,505112,003,731,225,,4,[-1],[-1],false,false,true,22.717mm,
0.0-4.0-2.0-166.0,405,multi-stim-multi-response,506267,003,731,225,,2,[-1],[-1],false,false,true,24.17mm,
0.0-4.0-2.0-167.0,406,multi-stim-multi-response,507418,003,731,225,,2,[32],[594],true,true,true,12mm,
0.0-4.0-2.0-168.0,407,multi-stim-multi-response,508572,003,731,225,,6,[32],[180],true,true,true,17.4mm,
0.0-4.0-2.0-169.0,408,multi-stim-multi-response,509727,003,731,225,,3,[-1],[-1],true,false,false,22.717mm,
0.0-4.0-2.0-170.0,409,multi-stim-multi-response,510882,003,731,225,,6,[-1],[-1],false,false,true,29mm,
0.0-4.0-2.0-171.0,410,multi-stim-multi-response,512037,003,731,225,,9,[-1],[-1],false,false,true,29mm,
0.0-4.0-2.0-172.0,411,multi-stim-multi-response,513192,003,731,225,,4,[-1],[-1],false,false,true,29mm,
0.0-4.0-2.0-173.0,412,multi-stim-multi-response,514347,003,731,225,,1,[-1],[-1],false,false,true,22.717mm,
0.0-4.0-2.0-174.0,413,multi-stim-multi-response,515502,003,731,225,,5,[-1],[-1],false,false,true,24.17mm,
0.0-4.0-2.0-175.0,414,multi-stim-multi-response,516654,003,731,225,,9,[-1],[-1],false,false,true,29mm,
0.0-4.0-2.0-176.0,415,multi-stim-multi-response,517809,003,731,225,,3,[-1],[-1],true,false,false,29mm,
0.0-4.0-2.0-177.0,416,multi-stim-multi-response,518962,003,731,225,,6,[-1],[-1],false,false,true,17.4mm,
0.0-4.0-2.0-178.0,417,multi-stim-multi-response,520117,003,731,225,,6,[-1],[-1],false,false,true,12mm,
0.0-4.0-2.0-179.0,418,multi-stim-multi-response,521272,003,731,225,,6,[-1],[-1],false,false,true,29mm,
0.0-4.0-2.0-180.0,419,multi-stim-multi-response,522427,003,731,225,,5,[-1],[-1],false,false,true,12mm,
0.0-4.0-2.0-181.0,420,multi-stim-multi-response,523582,003,731,225,,9,[-1],[-1],false,false,true,29mm,
0.0-4.0-2.0-182.0,421,multi-stim-multi-response,524737,003,731,225,,1,[-1],[-1],false,false,true,22.717mm,
0.0-4.0-2.0-183.0,422,multi-stim-multi-response,525888,003,731,225,,4,[-1],[-1],false,false,true,17.4mm,
0.0-4.0-2.0-184.0,423,multi-stim-multi-response,527041,003,731,225,,2,[-1],[-1],false,false,true,22.717mm,
0.0-4.0-2.0-185.0,424,multi-stim-multi-response,528197,003,731,225,,6,[-1],[-1],false,false,true,12mm,
0.0-4.0-2.0-186.0,425,multi-stim-multi-response,529352,003,731,225,,4,[-1],[-1],false,false,true,12mm,
0.0-4.0-2.0-187.0,426,multi-stim-multi-response,530507,003,731,225,,4,[32],[110],true,true,true,24.17mm,
0.0-4.0-2.0-188.0,427,multi-stim-multi-response,531662,003,731,225,,7,[-1],[-1],false,false,true,12mm,
0.0-4.0-2.0-189.0,428,multi-stim-multi-response,532816,003,731,225,,1,[-1],[-1],false,false,true,29mm,
0.0-4.0-2.0-190.0,429,multi-stim-multi-response,533968,003,731,225,,9,[32],[852],true,true,true,17.4mm,
0.0-4.0-2.0-191.0,430,multi-stim-multi-response,535121,003,731,225,,1,[32],[114],true,true,true,29mm,
0.0-4.0-2.0-192.0,431,multi-stim-multi-response,536277,003,731,225,,4,[-1],[-1],false,false,true,17.4mm,
0.0-4.0-2.0-193.0,432,multi-stim-multi-response,537432,003,731,225,,6,[-1],[-1],false,false,true,12mm,
0.0-4.0-2.0-194.0,433,multi-stim-multi-response,538587,003,731,225,,8,[-1],[-1],false,false,true,12mm,
0.0-4.0-2.0-195.0,434,multi-stim-multi-response,539740,003,731,225,,8,[-1],[-1],false,false,true,12mm,
0.0-4.0-2.0-196.0,435,multi-stim-multi-response,540897,003,731,225,,4,[-1],[-1],false,false,true,24.17mm,
0.0-4.0-2.0-197.0,436,multi-stim-multi-response,542048,003,731,225,,7,[-1],[-1],false,false,true,22.717mm,
0.0-4.0-2.0-198.0,437,multi-stim-multi-response,543203,003,731,225,,4,[-1],[-1],false,false,true,12mm,
0.0-4.0-2.0-199.0,438,multi-stim-multi-response,544356,003,731,225,,3,[-1],[-1],true,false,false,12mm,
0.0-4.0-2.0-200.0,439,multi-stim-multi-response,545511,003,731,225,,7,[-1],[-1],false,false,true,12mm,
0.0-4.0-2.0-201.0,440,multi-stim-multi-response,546666,003,731,225,,2,[-1],[-1],false,false,true,12mm,
0.0-4.0-2.0-202.0,441,multi-stim-multi-response,547822,003,731,225,,8,[32],[830],true,true,true,12mm,
0.0-4.0-2.0-203.0,442,multi-stim-multi-response,548977,003,731,225,,7,[32],[158],true,true,true,17.4mm,
0.0-4.0-2.0-204.0,443,multi-stim-multi-response,550128,003,731,225,,8,[-1],[-1],false,false,true,29mm,
0.0-4.0-2.0-205.0,444,multi-stim-multi-response,551281,003,731,225,,5,[-1],[-1],false,false,true,22.717mm,
0.0-4.0-2.0-206.0,445,multi-stim-multi-response,552436,003,731,225,,9,[-1],[-1],false,false,true,12mm,
0.0-4.0-2.0-207.0,446,multi-stim-multi-response,553592,003,731,225,,9,[-1],[-1],false,false,true,29mm,
0.0-4.0-2.0-208.0,447,multi-stim-multi-response,554746,003,731,225,,4,[-1],[-1],false,false,true,12mm,
0.0-4.0-2.0-209.0,448,multi-stim-multi-response,555901,003,731,225,,2,[-1],[-1],false,false,true,12mm,
0.0-4.0-2.0-210.0,449,multi-stim-multi-response,557057,003,731,225,,6,[-1],[-1],false,false,true,12mm,
0.0-4.0-2.0-211.0,450,multi-stim-multi-response,558208,003,731,225,,2,[-1],[-1],false,false,true,29mm,
0.0-4.0-2.0-212.0,451,multi-stim-multi-response,559361,003,731,225,,1,[-1],[-1],false,false,true,22.717mm,
0.0-4.0-2.0-213.0,452,multi-stim-multi-response,560516,003,731,225,,8,[-1],[-1],false,false,true,24.17mm,
0.0-4.0-2.0-214.0,453,multi-stim-multi-response,561671,003,731,225,,4,[-1],[-1],false,false,true,12mm,
0.0-4.0-2.0-215.0,454,multi-stim-multi-response,562827,003,731,225,,5,[-1],[-1],false,false,true,24.17mm,
0.0-4.0-2.0-216.0,455,multi-stim-multi-response,563981,003,731,225,,6,[-1],[-1],false,false,true,22.717mm,
0.0-4.0-2.0-217.0,456,multi-stim-multi-response,565132,003,731,225,,9,[-1],[-1],false,false,true,17.4mm,
0.0-4.0-2.0-218.0,457,multi-stim-multi-response,566288,003,731,225,,2,[-1],[-1],false,false,true,24.17mm,
0.0-4.0-2.0-219.0,458,multi-stim-multi-response,567441,003,731,225,,3,[-1],[-1],true,false,false,29mm,
0.0-4.0-2.0-220.0,459,multi-stim-multi-response,568596,003,731,225,,1,[-1],[-1],false,false,true,12mm,
0.0-4.0-2.0-221.0,460,multi-stim-multi-response,569751,003,731,225,,2,[-1],[-1],false,false,true,22.717mm,
0.0-4.0-2.0-222.0,461,multi-stim-multi-response,570906,003,731,225,,3,[32],[604],false,true,false,24.17mm,
0.0-4.0-2.0-223.0,462,multi-stim-multi-response,572061,003,731,225,,7,[32],[128],true,true,true,17.4mm,
0.0-4.0-2.0-224.0,463,multi-stim-multi-response,573216,003,731,225,,8,[32],[130],true,true,true,17.4mm,
0.0-4.0-3.0-0.0,464,survey-multi-choice,577219,003,731,225,,,,3998,,,,,"{""Q0"":""4""}"
0.0-4.0-3.0-1.0,465,survey-multi-choice,579863,003,731,225,,,,1640,,,,,"{""Q0"":""4""}"
0.0-5.0-0.0,466,text,582521,003,731,225,,,32,1653,,,,,
0.0-5.0-1.0,467,single-stim,584430,003,731,225,,../img/fixation-cross.png,-1,-1,,,,,
0.0-5.0-2.0-0.0,468,multi-stim-multi-response,585586,003,731,225,,9,[32],[961],true,true,true,17.4mm,
0.0-5.0-2.0-1.0,469,multi-stim-multi-response,586741,003,731,225,,4,[32],[56],true,true,true,17.4mm,
0.0-5.0-2.0-2.0,470,multi-stim-multi-response,587896,003,731,225,,2,[32],[269],true,true,true,17.4mm,
0.0-5.0-2.0-3.0,471,multi-stim-multi-response,589051,003,731,225,,4,[32],[615],true,true,true,22.717mm,
0.0-5.0-2.0-4.0,472,multi-stim-multi-response,590206,003,731,225,,2,[32],[69],true,true,true,17.4mm,
0.0-5.0-2.0-5.0,473,multi-stim-multi-response,591361,003,731,225,,3,[32],[2],false,true,false,29mm,
0.0-5.0-2.0-6.0,474,multi-stim-multi-response,592516,003,731,225,,8,[32],[398],true,true,true,24.17mm,
0.0-5.0-2.0-7.0,475,multi-stim-multi-response,593671,003,731,225,,5,[32],[558],true,true,true,22.717mm,
0.0-5.0-2.0-8.0,476,multi-stim-multi-response,594823,003,731,225,,8,[32],[74],true,true,true,24.17mm,
0.0-5.0-2.0-9.0,477,multi-stim-multi-response,595976,003,731,225,,8,[32],[185],true,true,true,29mm,
0.0-5.0-2.0-10.0,478,multi-stim-multi-response,597131,003,731,225,,6,[32],[247],true,true,true,22.717mm,
0.0-5.0-2.0-11.0,479,multi-stim-multi-response,598286,003,731,225,,9,[32],[627],true,true,true,29mm,
0.0-5.0-2.0-12.0,480,multi-stim-multi-response,599441,003,731,225,,9,[32],[77],true,true,true,12mm,
0.0-5.0-2.0-13.0,481,multi-stim-multi-response,600596,003,731,225,,3,[32],[142],false,true,false,17.4mm,
0.0-5.0-2.0-14.0,482,multi-stim-multi-response,601751,003,731,225,,8,[32],[117],true,true,true,17.4mm,
0.0-5.0-2.0-15.0,483,multi-stim-multi-response,602907,003,731,225,,4,[32],[186],true,true,true,12mm,
0.0-5.0-2.0-16.0,484,multi-stim-multi-response,604062,003,731,225,,8,[32],[226],true,true,true,12mm,
0.0-5.0-2.0-17.0,485,multi-stim-multi-response,605216,003,731,225,,8,[32],[256],true,true,true,29mm,
0.0-5.0-2.0-18.0,486,multi-stim-multi-response,606371,003,731,225,,8,[32],[255],true,true,true,29mm,
0.0-5.0-2.0-19.0,487,multi-stim-multi-response,607523,003,731,225,,3,[-1],[-1],true,false,false,22.717mm,
0.0-5.0-2.0-20.0,488,multi-stim-multi-response,609010,003,731,225,,4,[-1],[-1],false,false,true,22.717mm,
0.0-5.0-2.0-21.0,489,multi-stim-multi-response,611009,003,731,225,,8,[-1],[-1],false,false,true,22.717mm,
0.0-5.0-2.0-22.0,490,multi-stim-multi-response,613006,003,731,225,,2,[-1],[-1],false,false,true,12mm,
0.0-5.0-2.0-23.0,491,multi-stim-multi-response,615009,003,731,225,,9,[-1],[-1],false,false,true,29mm,
0.0-5.0-2.0-24.0,492,multi-stim-multi-response,617005,003,731,225,,2,[-1],[-1],false,false,true,17.4mm,
0.0-5.0-2.0-25.0,493,multi-stim-multi-response,619008,003,731,225,,8,[-1],[-1],false,false,true,29mm,
0.0-5.0-2.0-26.0,494,multi-stim-multi-response,621005,003,731,225,,7,[-1],[-1],false,false,true,22.717mm,
0.0-5.0-2.0-27.0,495,multi-stim-multi-response,623007,003,731,225,,8,[-1],[-1],false,false,true,12mm,
0.0-5.0-2.0-28.0,496,multi-stim-multi-response,625004,003,731,225,,7,[-1],[-1],false,false,true,29mm,
0.0-5.0-2.0-29.0,497,multi-stim-multi-response,627003,003,731,225,,7,[-1],[-1],false,false,true,17.4mm,
0.0-5.0-2.0-30.0,498,multi-stim-multi-response,629003,003,731,225,,5,[-1],[-1],false,false,true,17.4mm,
0.0-5.0-2.0-31.0,499,multi-stim-multi-response,631006,003,731,225,,1,[-1],[-1],false,false,true,24.17mm,
0.0-5.0-2.0-32.0,500,multi-stim-multi-response,633005,003,731,225,,2,[-1],[-1],false,false,true,22.717mm,
0.0-5.0-2.0-33.0,501,multi-stim-multi-response,635005,003,731,225,,2,[-1],[-1],false,false,true,29mm,
0.0-5.0-2.0-34.0,502,multi-stim-multi-response,637003,003,731,225,,5,[-1],[-1],false,false,true,17.4mm,
0.0-5.0-2.0-35.0,503,multi-stim-multi-response,639005,003,731,225,,3,[-1],[-1],true,false,false,17.4mm,
0.0-5.0-2.0-36.0,504,multi-stim-multi-response,641006,003,731,225,,2,[-1],[-1],false,false,true,22.717mm,
0.0-5.0-2.0-37.0,505,multi-stim-multi-response,643004,003,731,225,,5,[-1],[-1],false,false,true,29mm,
0.0-5.0-2.0-38.0,506,multi-stim-multi-response,645006,003,731,225,,3,[-1],[-1],true,false,false,22.717mm,
0.0-5.0-2.0-39.0,507,multi-stim-multi-response,647003,003,731,225,,6,[-1],[-1],false,false,true,22.717mm,
0.0-5.0-2.0-40.0,508,multi-stim-multi-response,649005,003,731,225,,4,[-1],[-1],false,false,true,22.717mm,
0.0-5.0-2.0-41.0,509,multi-stim-multi-response,651003,003,731,225,,2,[-1],[-1],false,false,true,29mm,
0.0-5.0-2.0-42.0,510,multi-stim-multi-response,653005,003,731,225,,3,[-1],[-1],true,false,false,12mm,
0.0-5.0-2.0-43.0,511,multi-stim-multi-response,654789,003,731,225,,9,[-1],[-1],false,false,true,17.4mm,
0.0-5.0-2.0-44.0,512,multi-stim-multi-response,655942,003,731,225,,9,[-1],[-1],false,false,true,12mm,
0.0-5.0-2.0-45.0,513,multi-stim-multi-response,657097,003,731,225,,7,[32],[332],true,true,true,12mm,
0.0-5.0-2.0-46.0,514,multi-stim-multi-response,658252,003,731,225,,9,[32],[122],true,true,true,12mm,
0.0-5.0-2.0-47.0,515,multi-stim-multi-response,659407,003,731,225,,6,[32],[393],true,true,true,22.717mm,
0.0-5.0-2.0-48.0,516,multi-stim-multi-response,660562,003,731,225,,8,[32],[417],true,true,true,12mm,
0.0-5.0-2.0-49.0,517,multi-stim-multi-response,661714,003,731,225,,5,[32],[661],true,true,true,17.4mm,
0.0-5.0-2.0-50.0,518,multi-stim-multi-response,662867,003,731,225,,3,[-1],[-1],true,false,false,24.17mm,
0.0-5.0-2.0-51.0,519,multi-stim-multi-response,664022,003,731,225,,2,[-1],[-1],false,false,true,29mm,
0.0-5.0-2.0-52.0,520,multi-stim-multi-response,665177,003,731,225,,6,[-1],[-1],false,false,true,24.17mm,
0.0-5.0-2.0-53.0,521,multi-stim-multi-response,666332,003,731,225,,9,[-1],[-1],false,false,true,17.4mm,
0.0-5.0-2.0-54.0,522,multi-stim-multi-response,667487,003,731,225,,8,[-1],[-1],false,false,true,24.17mm,
0.0-5.0-2.0-55.0,523,multi-stim-multi-response,668642,003,731,225,,5,[-1],[-1],false,false,true,22.717mm,
0.0-5.0-2.0-56.0,524,multi-stim-multi-response,669797,003,731,225,,8,[-1],[-1],false,false,true,22.717mm,
0.0-5.0-2.0-57.0,525,multi-stim-multi-response,670952,003,731,225,,4,[-1],[-1],false,false,true,22.717mm,
0.0-5.0-2.0-58.0,526,multi-stim-multi-response,672107,003,731,225,,3,[-1],[-1],true,false,false,17.4mm,
0.0-5.0-2.0-59.0,527,multi-stim-multi-response,673262,003,731,225,,2,[-1],[-1],false,false,true,22.717mm,
0.0-5.0-2.0-60.0,528,multi-stim-multi-response,674418,003,731,225,,8,[-1],[-1],false,false,true,12mm,
0.0-5.0-2.0-61.0,529,multi-stim-multi-response,675573,003,731,225,,9,[-1],[-1],false,false,true,17.4mm,
0.0-5.0-2.0-62.0,530,multi-stim-multi-response,676728,003,731,225,,4,[-1],[-1],false,false,true,22.717mm,
0.0-5.0-2.0-63.0,531,multi-stim-multi-response,677883,003,731,225,,6,[-1],[-1],false,false,true,24.17mm,
0.0-5.0-2.0-64.0,532,multi-stim-multi-response,679034,003,731,225,,4,[-1],[-1],false,false,true,17.4mm,
0.0-5.0-2.0-65.0,533,multi-stim-multi-response,680185,003,731,225,,6,[-1],[-1],false,false,true,29mm,
0.0-5.0-2.0-66.0,534,multi-stim-multi-response,681336,003,731,225,,2,[-1],[-1],false,false,true,22.717mm,
0.0-5.0-2.0-67.0,535,multi-stim-multi-response,682492,003,731,225,,8,[-1],[-1],false,false,true,22.717mm,
0.0-5.0-2.0-68.0,536,multi-stim-multi-response,683647,003,731,225,,8,[-1],[-1],false,false,true,29mm,
0.0-5.0-2.0-69.0,537,multi-stim-multi-response,684800,003,731,225,,3,[-1],[-1],true,false,false,17.4mm,
0.0-5.0-2.0-70.0,538,multi-stim-multi-response,685957,003,731,225,,2,[-1],[-1],false,false,true,12mm,
0.0-5.0-2.0-71.0,539,multi-stim-multi-response,687108,003,731,225,,5,[-1],[-1],false,false,true,12mm,
0.0-5.0-2.0-72.0,540,multi-stim-multi-response,688261,003,731,225,,6,[-1],[-1],false,false,true,29mm,
0.0-5.0-2.0-73.0,541,multi-stim-multi-response,689416,003,731,225,,3,[-1],[-1],true,false,false,22.717mm,
0.0-5.0-2.0-74.0,542,multi-stim-multi-response,690571,003,731,225,,1,[-1],[-1],false,false,true,12mm,
0.0-5.0-2.0-75.0,543,multi-stim-multi-response,691727,003,731,225,,5,[-1],[-1],false,false,true,29mm,
0.0-5.0-2.0-76.0,544,multi-stim-multi-response,692882,003,731,225,,5,[-1],[-1],false,false,true,29mm,
0.0-5.0-2.0-77.0,545,multi-stim-multi-response,694037,003,731,225,,1,[-1],[-1],false,false,true,29mm,
0.0-5.0-2.0-78.0,546,multi-stim-multi-response,695192,003,731,225,,7,[-1],[-1],false,false,true,22.717mm,
0.0-5.0-2.0-79.0,547,multi-stim-multi-response,696347,003,731,225,,1,[-1],[-1],false,false,true,12mm,
0.0-5.0-2.0-80.0,548,multi-stim-multi-response,697502,003,731,225,,1,[-1],[-1],false,false,true,17.4mm,
0.0-5.0-2.0-81.0,549,multi-stim-multi-response,698657,003,731,225,,7,[-1],[-1],false,false,true,22.717mm,
0.0-5.0-2.0-82.0,550,multi-stim-multi-response,699812,003,731,225,,7,[-1],[-1],false,false,true,12mm,
0.0-5.0-2.0-83.0,551,multi-stim-multi-response,700967,003,731,225,,9,[-1],[-1],false,false,true,17.4mm,
0.0-5.0-2.0-84.0,552,multi-stim-multi-response,702122,003,731,225,,2,[-1],[-1],false,false,true,17.4mm,
0.0-5.0-2.0-85.0,553,multi-stim-multi-response,703274,003,731,225,,6,[-1],[-1],false,false,true,29mm,
0.0-5.0-2.0-86.0,554,multi-stim-multi-response,704427,003,731,225,,4,[-1],[-1],false,false,true,24.17mm,
0.0-5.0-2.0-87.0,555,multi-stim-multi-response,705582,003,731,225,,3,[-1],[-1],true,false,false,22.717mm,
0.0-5.0-2.0-88.0,556,multi-stim-multi-response,706737,003,731,225,,5,[-1],[-1],false,false,true,12mm,
0.0-5.0-2.0-89.0,557,multi-stim-multi-response,707892,003,731,225,,9,[-1],[-1],false,false,true,29mm,
0.0-5.0-2.0-90.0,558,multi-stim-multi-response,709044,003,731,225,,1,[-1],[-1],false,false,true,17.4mm,
0.0-5.0-2.0-91.0,559,multi-stim-multi-response,710195,003,731,225,,7,[-1],[-1],false,false,true,12mm,
0.0-5.0-2.0-92.0,560,multi-stim-multi-response,711351,003,731,225,,4,[-1],[-1],false,false,true,17.4mm,
0.0-5.0-2.0-93.0,561,multi-stim-multi-response,712507,003,731,225,,8,[-1],[-1],false,false,true,12mm,
0.0-5.0-2.0-94.0,562,multi-stim-multi-response,713662,003,731,225,,1,[-1],[-1],false,false,true,17.4mm,
0.0-5.0-2.0-95.0,563,multi-stim-multi-response,714817,003,731,225,,7,[-1],[-1],false,false,true,22.717mm,
0.0-5.0-2.0-96.0,564,multi-stim-multi-response,715972,003,731,225,,5,[-1],[-1],false,false,true,17.4mm,
0.0-5.0-2.0-97.0,565,multi-stim-multi-response,717127,003,731,225,,8,[-1],[-1],false,false,true,24.17mm,
0.0-5.0-2.0-98.0,566,multi-stim-multi-response,718282,003,731,225,,5,[-1],[-1],false,false,true,24.17mm,
0.0-5.0-2.0-99.0,567,multi-stim-multi-response,719433,003,731,225,,8,[-1],[-1],false,false,true,12mm,
0.0-5.0-2.0-100.0,568,multi-stim-multi-response,720586,003,731,225,,3,[-1],[-1],true,false,false,22.717mm,
0.0-5.0-2.0-101.0,569,multi-stim-multi-response,721742,003,731,225,,5,[-1],[-1],false,false,true,22.717mm,
0.0-5.0-2.0-102.0,570,multi-stim-multi-response,722897,003,731,225,,2,[-1],[-1],false,false,true,12mm,
0.0-5.0-2.0-103.0,571,multi-stim-multi-response,724052,003,731,225,,5,[-1],[-1],false,false,true,29mm,
0.0-5.0-2.0-104.0,572,multi-stim-multi-response,725207,003,731,225,,5,[-1],[-1],false,false,true,29mm,
0.0-5.0-2.0-105.0,573,multi-stim-multi-response,726362,003,731,225,,6,[-1],[-1],false,false,true,24.17mm,
0.0-5.0-2.0-106.0,574,multi-stim-multi-response,727513,003,731,225,,2,[-1],[-1],false,false,true,24.17mm,
0.0-5.0-2.0-107.0,575,multi-stim-multi-response,728666,003,731,225,,3,[-1],[-1],true,false,false,29mm,
0.0-5.0-2.0-108.0,576,multi-stim-multi-response,729821,003,731,225,,8,[32],[848],true,true,true,12mm,
0.0-5.0-2.0-109.0,577,multi-stim-multi-response,730977,003,731,225,,5,[32],[160],true,true,true,22.717mm,
0.0-5.0-2.0-110.0,578,multi-stim-multi-response,732128,003,731,225,,4,[32],[64],true,true,true,24.17mm,
0.0-5.0-2.0-111.0,579,multi-stim-multi-response,733281,003,731,225,,1,[32],[190],true,true,true,12mm,
0.0-5.0-2.0-112.0,580,multi-stim-multi-response,734436,003,731,225,,1,[32],[144],true,true,true,29mm,
0.0-5.0-2.0-113.0,581,multi-stim-multi-response,735591,003,731,225,,9,[32],[20],true,true,true,17.4mm,
0.0-5.0-2.0-114.0,582,multi-stim-multi-response,736746,003,731,225,,1,[32],[75],true,true,true,17.4mm,
0.0-5.0-2.0-115.0,583,multi-stim-multi-response,737902,003,731,225,,4,[-1],[-1],false,false,true,17.4mm,
0.0-5.0-2.0-116.0,584,multi-stim-multi-response,739057,003,731,225,,1,[-1],[-1],false,false,true,29mm,
0.0-5.0-2.0-117.0,585,multi-stim-multi-response,740212,003,731,225,,4,[-1],[-1],false,false,true,24.17mm,
0.0-5.0-2.0-118.0,586,multi-stim-multi-response,741366,003,731,225,,4,[-1],[-1],false,false,true,24.17mm,
0.0-5.0-2.0-119.0,587,multi-stim-multi-response,742518,003,731,225,,8,[-1],[-1],false,false,true,17.4mm,
0.0-5.0-2.0-120.0,588,multi-stim-multi-response,743673,003,731,225,,1,[-1],[-1],false,false,true,12mm,
0.0-5.0-2.0-121.0,589,multi-stim-multi-response,744824,003,731,225,,7,[-1],[-1],false,false,true,24.17mm,
0.0-5.0-2.0-122.0,590,multi-stim-multi-response,745979,003,731,225,,7,[-1],[-1],false,false,true,22.717mm,
0.0-5.0-2.0-123.0,591,multi-stim-multi-response,747130,003,731,225,,1,[-1],[-1],false,false,true,29mm,
0.0-5.0-2.0-124.0,592,multi-stim-multi-response,748285,003,731,225,,1,[-1],[-1],false,false,true,24.17mm,
0.0-5.0-2.0-125.0,593,multi-stim-multi-response,749441,003,731,225,,5,[-1],[-1],false,false,true,24.17mm,
0.0-5.0-2.0-126.0,594,multi-stim-multi-response,750596,003,731,225,,3,[-1],[-1],true,false,false,17.4mm,
0.0-5.0-2.0-127.0,595,multi-stim-multi-response,751751,003,731,225,,2,[-1],[-1],false,false,true,17.4mm,
0.0-5.0-2.0-128.0,596,multi-stim-multi-response,752906,003,731,225,,9,[-1],[-1],false,false,true,22.717mm,
0.0-5.0-2.0-129.0,597,multi-stim-multi-response,754061,003,731,225,,8,[-1],[-1],false,false,true,24.17mm,
0.0-5.0-2.0-130.0,598,multi-stim-multi-response,755215,003,731,225,,5,[-1],[-1],false,false,true,29mm,
0.0-5.0-2.0-131.0,599,multi-stim-multi-response,756365,003,731,225,,5,[-1],[-1],false,false,true,24.17mm,
0.0-5.0-2.0-132.0,600,multi-stim-multi-response,757517,003,731,225,,4,[-1],[-1],false,false,true,29mm,
0.0-5.0-2.0-133.0,601,multi-stim-multi-response,758674,003,731,225,,6,[-1],[-1],false,false,true,22.717mm,
0.0-5.0-2.0-134.0,602,multi-stim-multi-response,759825,003,731,225,,5,[-1],[-1],false,false,true,24.17mm,
0.0-5.0-2.0-135.0,603,multi-stim-multi-response,760980,003,731,225,,3,[-1],[-1],true,false,false,12mm,
0.0-5.0-2.0-136.0,604,multi-stim-multi-response,762135,003,731,225,,7,[-1],[-1],false,false,true,24.17mm,
0.0-5.0-2.0-137.0,605,multi-stim-multi-response,763290,003,731,225,,5,[-1],[-1],false,false,true,24.17mm,
0.0-5.0-2.0-138.0,606,multi-stim-multi-response,764445,003,731,225,,9,[32],[648],true,true,true,22.717mm,
0.0-5.0-2.0-139.0,607,multi-stim-multi-response,765600,003,731,225,,5,[32],[67],true,true,true,12mm,
0.0-5.0-2.0-140.0,608,multi-stim-multi-response,766755,003,731,225,,2,[32],[354],true,true,true,17.4mm,
0.0-5.0-2.0-141.0,609,multi-stim-multi-response,767910,003,731,225,,3,[32],[523],false,true,false,24.17mm,
0.0-5.0-2.0-142.0,610,multi-stim-multi-response,769066,003,731,225,,9,[32],[556],true,true,true,29mm,
0.0-5.0-2.0-143.0,611,multi-stim-multi-response,770221,003,731,225,,9,[32],[523],true,true,true,22.717mm,
0.0-5.0-2.0-144.0,612,multi-stim-multi-response,771376,003,731,225,,7,[32],[406],true,true,true,29mm,
0.0-5.0-2.0-145.0,613,multi-stim-multi-response,772531,003,731,225,,4,[32],[685],true,true,true,24.17mm,
0.0-5.0-2.0-146.0,614,multi-stim-multi-response,773686,003,731,225,,6,[32],[211],true,true,true,22.717mm,
0.0-5.0-2.0-147.0,615,multi-stim-multi-response,774841,003,731,225,,9,[32],[419],true,true,true,17.4mm,
0.0-5.0-2.0-148.0,616,multi-stim-multi-response,775992,003,731,225,,3,[32],[668],false,true,false,22.717mm,
0.0-5.0-2.0-149.0,617,multi-stim-multi-response,777145,003,731,225,,2,[32],[206],true,true,true,17.4mm,
0.0-5.0-2.0-150.0,618,multi-stim-multi-response,778301,003,731,225,,5,[32],[646],true,true,true,22.717mm,
0.0-5.0-2.0-151.0,619,multi-stim-multi-response,779454,003,731,225,,7,[32],[389],true,true,true,22.717mm,
0.0-5.0-2.0-152.0,620,multi-stim-multi-response,780610,003,731,225,,1,[-1],[-1],false,false,true,22.717mm,
0.0-5.0-2.0-153.0,621,multi-stim-multi-response,781766,003,731,225,,5,[-1],[-1],false,false,true,29mm,
0.0-5.0-2.0-154.0,622,multi-stim-multi-response,782921,003,731,225,,9,[-1],[-1],false,false,true,22.717mm,
0.0-5.0-2.0-155.0,623,multi-stim-multi-response,784072,003,731,225,,7,[-1],[-1],false,false,true,29mm,
0.0-5.0-2.0-156.0,624,multi-stim-multi-response,785225,003,731,225,,1,[-1],[-1],false,false,true,17.4mm,
0.0-5.0-2.0-157.0,625,multi-stim-multi-response,786380,003,731,225,,2,[32],[999],true,true,true,24.17mm,
0.0-5.0-2.0-158.0,626,multi-stim-multi-response,787536,003,731,225,,1,[32],[113],true,true,true,22.717mm,
0.0-5.0-2.0-159.0,627,multi-stim-multi-response,788687,003,731,225,,1,[32],[133],true,true,true,29mm,
0.0-5.0-2.0-160.0,628,multi-stim-multi-response,789840,003,731,225,,4,[-1],[-1],false,false,true,29mm,
0.0-5.0-2.0-161.0,629,multi-stim-multi-response,790995,003,731,225,,3,[-1],[-1],true,false,false,24.17mm,
0.0-5.0-2.0-162.0,630,multi-stim-multi-response,792150,003,731,225,,1,[-1],[-1],false,false,true,24.17mm,
0.0-5.0-2.0-163.0,631,multi-stim-multi-response,793305,003,731,225,,8,[-1],[-1],false,false,true,24.17mm,
0.0-5.0-2.0-164.0,632,multi-stim-multi-response,794460,003,731,225,,4,[-1],[-1],false,false,true,17.4mm,
0.0-5.0-2.0-165.0,633,multi-stim-multi-response,795612,003,731,225,,1,[-1],[-1],false,false,true,24.17mm,
0.0-5.0-2.0-166.0,634,multi-stim-multi-response,796765,003,731,225,,5,[-1],[-1],false,false,true,17.4mm,
0.0-5.0-2.0-167.0,635,multi-stim-multi-response,797920,003,731,225,,2,[-1],[-1],false,false,true,17.4mm,
0.0-5.0-2.0-168.0,636,multi-stim-multi-response,799075,003,731,225,,6,[-1],[-1],false,false,true,17.4mm,
0.0-5.0-2.0-169.0,637,multi-stim-multi-response,800230,003,731,225,,5,[-1],[-1],false,false,true,22.717mm,
0.0-5.0-2.0-170.0,638,multi-stim-multi-response,801385,003,731,225,,6,[-1],[-1],false,false,true,17.4mm,
0.0-5.0-2.0-171.0,639,multi-stim-multi-response,802540,003,731,225,,4,[-1],[-1],false,false,true,12mm,
0.0-5.0-2.0-172.0,640,multi-stim-multi-response,803694,003,731,225,,1,[-1],[-1],false,false,true,17.4mm,
0.0-5.0-2.0-173.0,641,multi-stim-multi-response,804850,003,731,225,,9,[-1],[-1],false,false,true,12mm,
0.0-5.0-2.0-174.0,642,multi-stim-multi-response,806006,003,731,225,,4,[-1],[-1],false,false,true,22.717mm,
0.0-5.0-2.0-175.0,643,multi-stim-multi-response,807160,003,731,225,,6,[-1],[-1],false,false,true,29mm,
0.0-5.0-2.0-176.0,644,multi-stim-multi-response,808312,003,731,225,,6,[-1],[-1],false,false,true,22.717mm,
0.0-5.0-2.0-177.0,645,multi-stim-multi-response,809465,003,731,225,,8,[-1],[-1],false,false,true,22.717mm,
0.0-5.0-2.0-178.0,646,multi-stim-multi-response,810620,003,731,225,,9,[-1],[-1],false,false,true,17.4mm,
0.0-5.0-2.0-179.0,647,multi-stim-multi-response,811775,003,731,225,,3,[-1],[-1],true,false,false,24.17mm,
0.0-5.0-2.0-180.0,648,multi-stim-multi-response,812930,003,731,225,,1,[-1],[-1],false,false,true,17.4mm,
0.0-5.0-2.0-181.0,649,multi-stim-multi-response,814085,003,731,225,,9,[-1],[-1],false,false,true,22.717mm,
0.0-5.0-2.0-182.0,650,multi-stim-multi-response,815240,003,731,225,,7,[-1],[-1],false,false,true,24.17mm,
0.0-5.0-2.0-183.0,651,multi-stim-multi-response,816391,003,731,225,,2,[32],[363],true,true,true,17.4mm,
0.0-5.0-2.0-184.0,652,multi-stim-multi-response,817545,003,731,225,,7,[32],[65],true,true,true,12mm,
0.0-5.0-2.0-185.0,653,multi-stim-multi-response,818700,003,731,225,,4,[32],[771],true,true,true,29mm,
0.0-5.0-2.0-186.0,654,multi-stim-multi-response,819855,003,731,225,,7,[32],[464],true,true,true,12mm,
0.0-5.0-2.0-187.0,655,multi-stim-multi-response,821010,003,731,225,,2,[32],[256],true,true,true,12mm,
0.0-5.0-2.0-188.0,656,multi-stim-multi-response,822165,003,731,225,,1,[32],[281],true,true,true,17.4mm,
0.0-5.0-2.0-189.0,657,multi-stim-multi-response,823318,003,731,225,,9,[32],[235],true,true,true,22.717mm,
0.0-5.0-2.0-190.0,658,multi-stim-multi-response,824474,003,731,225,,4,[32],[863],true,true,true,12mm,
0.0-5.0-2.0-191.0,659,multi-stim-multi-response,825630,003,731,225,,4,[32],[705],true,true,true,17.4mm,
0.0-5.0-2.0-192.0,660,multi-stim-multi-response,826785,003,731,225,,6,[32],[379],true,true,true,24.17mm,
0.0-5.0-2.0-193.0,661,multi-stim-multi-response,827940,003,731,225,,1,[32],[190],true,true,true,24.17mm,
0.0-5.0-2.0-194.0,662,multi-stim-multi-response,829096,003,731,225,,3,[32],[99],false,true,false,17.4mm,
0.0-5.0-2.0-195.0,663,multi-stim-multi-response,830251,003,731,225,,4,[32],[788],true,true,true,12mm,
0.0-5.0-2.0-196.0,664,multi-stim-multi-response,831406,003,731,225,,5,[32],[482],true,true,true,17.4mm,
0.0-5.0-2.0-197.0,665,multi-stim-multi-response,832561,003,731,225,,5,[32],[295],true,true,true,29mm,
0.0-5.0-2.0-198.0,666,multi-stim-multi-response,833716,003,731,225,,8,[32],[857],true,true,true,29mm,
0.0-5.0-2.0-199.0,667,multi-stim-multi-response,834871,003,731,225,,9,[-1],[-1],false,false,true,22.717mm,
0.0-5.0-2.0-200.0,668,multi-stim-multi-response,836026,003,731,225,,6,[32],[834],true,true,true,24.17mm,
0.0-5.0-2.0-201.0,669,multi-stim-multi-response,837181,003,731,225,,2,[-1],[-1],false,false,true,17.4mm,
0.0-5.0-2.0-202.0,670,multi-stim-multi-response,838336,003,731,225,,1,[32],[960],true,true,true,12mm,
0.0-5.0-2.0-203.0,671,multi-stim-multi-response,839492,003,731,225,,6,[32],[423],true,true,true,24.17mm,
0.0-5.0-2.0-204.0,672,multi-stim-multi-response,840647,003,731,225,,6,[32],[485],true,true,true,29mm,
0.0-5.0-2.0-205.0,673,multi-stim-multi-response,841802,003,731,225,,2,[32],[168],true,true,true,17.4mm,
0.0-5.0-2.0-206.0,674,multi-stim-multi-response,842957,003,731,225,,7,[32],[550],true,true,true,22.717mm,
0.0-5.0-2.0-207.0,675,multi-stim-multi-response,844110,003,731,225,,5,[32],[230],true,true,true,17.4mm,
0.0-5.0-2.0-208.0,676,multi-stim-multi-response,845261,003,731,225,,4,[32],[719],true,true,true,17.4mm,
0.0-5.0-2.0-209.0,677,multi-stim-multi-response,846416,003,731,225,,4,[-1],[-1],false,false,true,12mm,
0.0-5.0-2.0-210.0,678,multi-stim-multi-response,847571,003,731,225,,2,[32],[335],true,true,true,22.717mm,
0.0-5.0-2.0-211.0,679,multi-stim-multi-response,848726,003,731,225,,5,[32],[207],true,true,true,12mm,
0.0-5.0-2.0-212.0,680,multi-stim-multi-response,849881,003,731,225,,4,[32],[425],true,true,true,29mm,
0.0-5.0-2.0-213.0,681,multi-stim-multi-response,851033,003,731,225,,9,[32],[335],true,true,true,29mm,
0.0-5.0-2.0-214.0,682,multi-stim-multi-response,852186,003,731,225,,7,[32],[864],true,true,true,12mm,
0.0-5.0-2.0-215.0,683,multi-stim-multi-response,853341,003,731,225,,8,[32],[633],true,true,true,24.17mm,
0.0-5.0-2.0-216.0,684,multi-stim-multi-response,854496,003,731,225,,9,[32],[406],true,true,true,29mm,
0.0-5.0-2.0-217.0,685,multi-stim-multi-response,855651,003,731,225,,4,[32],[393],true,true,true,24.17mm,
0.0-5.0-2.0-218.0,686,multi-stim-multi-response,856806,003,731,225,,9,[32],[656],true,true,true,29mm,
0.0-5.0-2.0-219.0,687,multi-stim-multi-response,857961,003,731,225,,4,[32],[699],true,true,true,29mm,
0.0-5.0-2.0-220.0,688,multi-stim-multi-response,859113,003,731,225,,6,[32],[694],true,true,true,22.717mm,
0.0-5.0-2.0-221.0,689,multi-stim-multi-response,860266,003,731,225,,9,[32],[688],true,true,true,29mm,
0.0-5.0-2.0-222.0,690,multi-stim-multi-response,861421,003,731,225,,6,[32],[654],true,true,true,24.17mm,
0.0-5.0-2.0-223.0,691,multi-stim-multi-response,862576,003,731,225,,9,[32],[657],true,true,true,17.4mm,
0.0-5.0-2.0-224.0,692,multi-stim-multi-response,863731,003,731,225,,5,[32],[702],true,true,true,12mm,
0.0-5.0-3.0-0.0,693,survey-multi-choice,866757,003,731,225,,,,3022,,,,,"{""Q0"":""4""}"
0.0-5.0-3.0-1.0,694,survey-multi-choice,869430,003,731,225,,,,1667,,,,,"{""Q0"":""4""}"
0.0-6.0-0.0,695,text,871910,003,731,225,,,32,1475,,,,,
0.0-6.0-1.0,696,single-stim,873816,003,731,225,,../img/fixation-cross.png,-1,-1,,,,,
0.0-6.0-2.0-0.0,697,multi-stim-multi-response,874969,003,731,225,,9,[-1],[-1],false,false,true,17.4mm,
0.0-6.0-2.0-1.0,698,multi-stim-multi-response,876124,003,731,225,,7,[32],[609],true,true,true,17.4mm,
0.0-6.0-2.0-2.0,699,multi-stim-multi-response,877279,003,731,225,,6,[32],[136],true,true,true,12mm,
0.0-6.0-2.0-3.0,700,multi-stim-multi-response,878434,003,731,225,,7,[32],[313],true,true,true,17.4mm,
0.0-6.0-2.0-4.0,701,multi-stim-multi-response,879589,003,731,225,,9,[32],[350],true,true,true,17.4mm,
0.0-6.0-2.0-5.0,702,multi-stim-multi-response,880744,003,731,225,,5,[32],[839],true,true,true,29mm,
0.0-6.0-2.0-6.0,703,multi-stim-multi-response,881899,003,731,225,,1,[32],[739],true,true,true,17.4mm,
0.0-6.0-2.0-7.0,704,multi-stim-multi-response,883054,003,731,225,,5,[32],[235],true,true,true,24.17mm,
0.0-6.0-2.0-8.0,705,multi-stim-multi-response,884209,003,731,225,,1,[32],[694],true,true,true,22.717mm,
0.0-6.0-2.0-9.0,706,multi-stim-multi-response,885364,003,731,225,,6,[32],[409],true,true,true,12mm,
0.0-6.0-2.0-10.0,707,multi-stim-multi-response,886519,003,731,225,,1,[-1],[-1],false,false,true,22.717mm,
0.0-6.0-2.0-11.0,708,multi-stim-multi-response,887675,003,731,225,,2,[32],[481],true,true,true,29mm,
0.0-6.0-2.0-12.0,709,multi-stim-multi-response,888830,003,731,225,,8,[32],[615],true,true,true,17.4mm,
0.0-6.0-2.0-13.0,710,multi-stim-multi-response,889985,003,731,225,,1,[-1],[-1],false,false,true,17.4mm,
0.0-6.0-2.0-14.0,711,multi-stim-multi-response,891140,003,731,225,,8,[32],[1004],true,true,true,29mm,
0.0-6.0-2.0-15.0,712,multi-stim-multi-response,892295,003,731,225,,7,[-1],[-1],false,false,true,24.17mm,
0.0-6.0-2.0-16.0,713,multi-stim-multi-response,893450,003,731,225,,7,[-1],[-1],false,false,true,24.17mm,
0.0-6.0-2.0-17.0,714,multi-stim-multi-response,894605,003,731,225,,5,[32],[857],true,true,true,22.717mm,
0.0-6.0-2.0-18.0,715,multi-stim-multi-response,895760,003,731,225,,6,[32],[1009],true,true,true,24.17mm,
0.0-6.0-2.0-19.0,716,multi-stim-multi-response,896911,003,731,225,,5,[32],[939],true,true,true,22.717mm,
0.0-6.0-2.0-20.0,717,multi-stim-multi-response,898065,003,731,225,,6,[-1],[-1],false,false,true,12mm,
0.0-6.0-2.0-21.0,718,multi-stim-multi-response,899220,003,731,225,,2,[32],[247],true,true,true,12mm,
0.0-6.0-2.0-22.0,719,multi-stim-multi-response,900375,003,731,225,,2,[32],[236],true,true,true,29mm,
0.0-6.0-2.0-23.0,720,multi-stim-multi-response,901530,003,731,225,,8,[32],[308],true,true,true,17.4mm,
0.0-6.0-2.0-24.0,721,multi-stim-multi-response,902685,003,731,225,,7,[32],[245],true,true,true,29mm,
0.0-6.0-2.0-25.0,722,multi-stim-multi-response,903840,003,731,225,,2,[32],[119],true,true,true,24.17mm,
0.0-6.0-2.0-26.0,723,multi-stim-multi-response,904992,003,731,225,,8,[32],[54],true,true,true,29mm,
0.0-6.0-2.0-27.0,724,multi-stim-multi-response,906144,003,731,225,,1,[32],[573],true,true,true,17.4mm,
0.0-6.0-2.0-28.0,725,multi-stim-multi-response,907299,003,731,225,,6,[32],[383],true,true,true,12mm,
0.0-6.0-2.0-29.0,726,multi-stim-multi-response,908455,003,731,225,,8,[32],[412],true,true,true,17.4mm,
0.0-6.0-2.0-30.0,727,multi-stim-multi-response,909610,003,731,225,,8,[32],[138],true,true,true,29mm,
0.0-6.0-2.0-31.0,728,multi-stim-multi-response,910761,003,731,225,,1,[32],[1148],true,true,true,22.717mm,
0.0-6.0-2.0-32.0,729,multi-stim-multi-response,911914,003,731,225,,2,[-1],[-1],false,false,true,22.717mm,
0.0-6.0-2.0-33.0,730,multi-stim-multi-response,913067,003,731,225,,4,[32],[552],true,true,true,24.17mm,
0.0-6.0-2.0-34.0,731,multi-stim-multi-response,914219,003,731,225,,8,[32],[339],true,true,true,29mm,
0.0-6.0-2.0-35.0,732,multi-stim-multi-response,915373,003,731,225,,8,[32],[423],true,true,true,17.4mm,
0.0-6.0-2.0-36.0,733,multi-stim-multi-response,916529,003,731,225,,4,[32],[351],true,true,true,12mm,
0.0-6.0-2.0-37.0,734,multi-stim-multi-response,917684,003,731,225,,2,[32],[383],true,true,true,17.4mm,
0.0-6.0-2.0-38.0,735,multi-stim-multi-response,918839,003,731,225,,9,[32],[374],true,true,true,22.717mm,
0.0-6.0-2.0-39.0,736,multi-stim-multi-response,919994,003,731,225,,6,[32],[620],true,true,true,24.17mm,
0.0-6.0-2.0-40.0,737,multi-stim-multi-response,921149,003,731,225,,1,[32],[581],true,true,true,17.4mm,
0.0-6.0-2.0-41.0,738,multi-stim-multi-response,922305,003,731,225,,4,[32],[425],true,true,true,22.717mm,
0.0-6.0-2.0-42.0,739,multi-stim-multi-response,923459,003,731,225,,5,[32],[436],true,true,true,29mm,
0.0-6.0-2.0-43.0,740,multi-stim-multi-response,924614,003,731,225,,7,[32],[127],true,true,true,24.17mm,
0.0-6.0-2.0-44.0,741,multi-stim-multi-response,925769,003,731,225,,9,[-1],[-1],false,false,true,29mm,
0.0-6.0-2.0-45.0,742,multi-stim-multi-response,926982,003,731,225,,1,[-1],[-1],false,false,true,17.4mm,
0.0-6.0-2.0-46.0,743,multi-stim-multi-response,928979,003,731,225,,7,[-1],[-1],false,false,true,12mm,
0.0-6.0-2.0-47.0,744,multi-stim-multi-response,930981,003,731,225,,6,[-1],[-1],false,false,true,22.717mm,
0.0-6.0-2.0-48.0,745,multi-stim-multi-response,932979,003,731,225,,3,[-1],[-1],true,false,false,22.717mm,
0.0-6.0-2.0-49.0,746,multi-stim-multi-response,934981,003,731,225,,1,[-1],[-1],false,false,true,29mm,
0.0-6.0-2.0-50.0,747,multi-stim-multi-response,936715,003,731,225,,6,[-1],[-1],false,false,true,29mm,
0.0-6.0-2.0-51.0,748,multi-stim-multi-response,937868,003,731,225,,8,[-1],[-1],false,false,true,17.4mm,
0.0-6.0-2.0-52.0,749,multi-stim-multi-response,939021,003,731,225,,5,[-1],[-1],false,false,true,12mm,
0.0-6.0-2.0-53.0,750,multi-stim-multi-response,940176,003,731,225,,6,[-1],[-1],false,false,true,29mm,
0.0-6.0-2.0-54.0,751,multi-stim-multi-response,941331,003,731,225,,8,[-1],[-1],false,false,true,29mm,
0.0-6.0-2.0-55.0,752,multi-stim-multi-response,942486,003,731,225,,9,[-1],[-1],false,false,true,22.717mm,
0.0-6.0-3.0-0.0,753,survey-multi-choice,947015,003,731,225,,,,4526,,,,,"{""Q0"":""4""}"
0.0-6.0-3.0-1.0,754,survey-multi-choice,950120,003,731,225,,,,2099,,,,,"{""Q0"":""4""}"
0.0-7.0-0.0,755,survey-multi-choice,953268,003,731,225,,,,2141,,,,,"{""Q0"":""4""}"
0.0-7.0-1.0,756,survey-multi-choice,955791,003,731,225,,,,1519,,,,,"{""Q0"":""4""}"
0.0-8.0,757,text,958462,003,731,225,,,32,1668,,,,,